Key_Response.keys,Key_Response.rt,trials.thisRepN,trials.thisTrialN,trials.thisN,trials.thisIndex,trials.ran,Sequences,Repeat,BreakTime,session,date,expName,psychopyVersion,OS,frameRate
"[""4"",""1"",""3"",""2"",""4"",""4"",""1"",""3"",""2"",""4"",""4"",""1"",""3"",""2"",""4"",""4"",""1"",""3"",""2"",""4"",""4"",""1"",""3"",""2"",""4"",""4"",""1""]","[1.19,1.456,2.073,2.324,2.541,3.022,3.381,3.756,3.972,4.161,4.439,4.688,4.988,5.246,5.489,5.744,6.006,6.322,6.72,7.028,7.337,7.594,8.076,8.377,8.641,8.909,9.228]",0,0,0,0,1,41324,,10,1,2021-01-12_17h47.41.071,Sequence Training,2020.1.3,Win32,60
"[""4"",""1"",""3"",""2"",""4"",""4"",""1"",""3"",""2"",""4"",""4"",""1"",""3"",""2"",""4"",""4"",""1"",""3"",""2"",""4"",""4"",""1"",""3"",""2"",""4"",""4"",""1"",""3"",""2"",""4"",""4"",""1"",""3""]","[1.099,1.402,1.925,2.149,2.365,2.704,2.969,3.221,3.415,3.724,4.064,4.315,4.598,4.848,5.064,5.319,5.581,5.871,6.114,6.414,6.732,7.022,7.33,7.584,7.831,8.097,8.347,8.655,8.896,9.129,9.386,9.646,9.935]",0,1,1,1,1,41324,,10,1,2021-01-12_17h47.41.071,Sequence Training,2020.1.3,Win32,60
"[""4"",""1"",""3"",""4"",""4"",""1"",""3"",""2"",""4"",""4"",""1"",""3"",""2"",""4"",""4"",""1"",""3"",""2"",""4"",""4"",""1"",""3"",""2"",""4"",""4"",""1"",""3"",""2"",""4"",""4"",""1""]","[0.783,1.034,1.338,1.618,2.616,2.888,3.188,3.782,3.987,4.265,4.548,4.772,4.998,5.199,5.414,5.864,6.165,6.38,6.631,6.849,7.134,7.397,7.631,7.886,8.114,8.369,8.63,8.896,9.172,9.413,9.93]",0,2,2,2,1,41324,,10,1,2021-01-12_17h47.41.071,Sequence Training,2020.1.3,Win32,60
"[""4"",""1"",""3"",""2"",""4"",""4"",""1"",""3"",""2"",""4"",""4"",""1"",""3"",""2"",""4"",""4"",""1"",""3"",""2"",""4"",""4"",""1"",""3"",""2"",""4"",""4"",""1"",""3"",""2"",""4"",""4"",""1"",""3""]","[1.167,1.422,1.701,1.933,2.151,2.423,2.67,2.916,3.173,3.407,3.682,3.932,4.215,4.499,4.752,5.021,5.331,5.649,5.914,6.165,6.402,6.681,6.949,7.283,7.581,7.853,8.181,8.505,8.764,9.014,9.302,9.564,9.864]",0,3,3,3,1,41324,,10,1,2021-01-12_17h47.41.071,Sequence Training,2020.1.3,Win32,60
"[""4"",""1"",""3"",""2"",""4"",""4"",""1"",""3"",""2"",""4"",""4"",""1"",""3"",""2"",""4"",""4"",""1"",""3"",""2"",""4"",""4"",""1"",""3"",""2"",""4"",""4"",""1"",""3"",""2"",""4"",""4"",""1"",""3"",""2"",""4"",""4"",""1""]","[0.617,0.901,1.157,1.523,1.785,2.09,2.35,2.584,2.806,3.085,3.288,3.549,3.833,4.076,4.333,4.584,4.821,5.099,5.333,5.566,5.799,6.036,6.315,6.558,6.799,7.049,7.298,7.598,7.816,8.089,8.348,8.582,8.853,9.114,9.348,9.615,9.92]",0,4,4,4,1,41324,,30,1,2021-01-12_17h47.41.071,Sequence Training,2020.1.3,Win32,60
"[""4"",""1"",""3"",""2"",""4"",""4"",""1"",""3"",""2"",""4"",""4"",""1"",""3"",""2"",""4"",""4"",""1"",""3"",""2"",""4"",""4"",""1"",""3"",""2"",""4"",""4"",""1"",""3"",""2"",""4"",""4"",""1"",""3"",""2"",""4"",""4"",""1"",""3"",""2"",""4"",""4"",""1""]","[0.657,0.883,1.221,1.567,1.783,2.091,2.358,2.6,2.799,3.036,3.259,3.491,3.732,3.949,4.152,4.4,4.583,4.84,5.065,5.214,5.471,5.666,5.898,6.098,6.281,6.573,6.769,6.998,7.149,7.316,7.567,7.764,8.138,8.322,8.47,8.714,8.888,9.113,9.264,9.414,9.686,9.88]",0,5,5,5,1,41324,,0,1,2021-01-12_17h47.41.071,Sequence Training,2020.1.3,Win32,60
"[""3"",""2"",""4"",""2"",""3"",""1"",""4"",""4"",""2"",""3"",""1"",""4"",""4"",""2"",""3"",""1"",""4"",""4"",""2"",""3"",""1"",""4"",""4"",""2"",""3"",""1"",""4"",""4"",""2""]","[0.069,0.239,1.609,1.889,2.058,2.324,2.834,3.166,3.4,3.522,3.789,3.998,4.257,4.568,4.788,5.407,5.648,5.949,7.347,7.516,7.853,8.048,8.314,8.657,8.865,9.121,9.347,9.597,9.93]",0,6,6,6,1,42314,,10,1,2021-01-12_17h47.41.071,Sequence Training,2020.1.3,Win32,60
"[""4"",""1"",""3"",""2"",""4"",""4"",""1"",""3"",""2"",""4"",""4"",""1"",""3"",""2"",""4"",""4"",""1"",""3"",""2"",""4"",""4"",""1"",""3"",""2"",""4"",""4"",""1"",""3"",""2"",""4"",""4"",""1""]","[0.851,1.19,1.699,1.983,2.266,2.555,2.803,3.082,3.55,3.84,4.155,4.465,5.119,5.402,5.69,5.931,6.172,6.389,6.656,6.905,7.166,7.371,7.648,7.864,8.063,8.297,8.536,8.784,9.03,9.23,9.497,9.763]",0,7,7,7,1,41324,,0,1,2021-01-12_17h47.41.071,Sequence Training,2020.1.3,Win32,60
"[""3"",""4"",""2"",""3"",""1"",""4"",""4"",""2"",""3"",""1"",""4"",""4"",""2"",""3"",""1"",""4"",""4"",""2"",""3"",""1"",""4"",""4"",""2"",""3"",""1"",""4"",""4"",""2"",""3"",""1"",""4"",""4"",""2"",""3""]","[0.133,1.999,2.3,2.516,2.733,2.882,3.132,3.348,3.499,3.782,4.102,4.431,4.768,4.964,5.215,5.47,5.865,6.132,6.24,6.531,6.764,7.052,7.297,7.463,7.68,7.847,8.251,8.514,8.647,8.916,9.056,9.43,9.739,9.937]",0,8,8,8,1,42314,,10,1,2021-01-12_17h47.41.071,Sequence Training,2020.1.3,Win32,60
"[""4"",""1"",""3"",""2"",""4"",""4"",""1"",""3"",""2"",""4"",""4"",""1"",""3"",""2"",""4"",""4"",""1"",""3"",""2"",""4"",""4"",""1"",""3"",""2"",""4"",""4"",""1"",""3"",""2"",""4"",""4"",""1"",""3"",""2"",""4"",""4"",""1""]","[0.65,0.954,1.55,1.804,1.969,2.219,2.449,2.692,3.233,3.415,3.656,3.85,4.054,4.304,4.649,4.855,5.117,5.369,5.64,5.882,6.12,6.365,6.615,6.848,7.048,7.284,7.498,7.898,8.123,8.364,8.587,8.802,9.031,9.232,9.447,9.672,9.888]",0,9,9,9,1,41324,,0,1,2021-01-12_17h47.41.071,Sequence Training,2020.1.3,Win32,60
"[""3"",""4"",""2"",""3"",""1"",""4"",""4"",""2"",""3"",""1"",""4"",""4"",""2"",""3"",""1"",""4"",""4"",""2"",""3"",""1"",""4"",""4"",""2"",""3"",""1"",""4"",""4"",""2"",""3"",""1"",""4"",""4"",""2"",""3"",""1"",""4"",""4"",""2"",""3""]","[0.1,1.858,2.101,2.166,2.501,2.733,3.003,3.249,3.4,3.654,3.868,4.17,4.432,4.582,4.84,5.016,5.265,5.472,5.615,5.865,6.068,6.315,6.581,6.765,6.97,7.09,7.383,7.787,7.915,8.153,8.314,8.568,8.814,8.93,9.153,9.254,9.553,9.819,9.913]",0,10,10,10,1,42314,,10,1,2021-01-12_17h47.41.071,Sequence Training,2020.1.3,Win32,60
"[""4"",""1"",""3"",""2"",""4"",""4"",""1"",""3"",""2"",""4"",""4"",""1"",""3"",""2"",""4"",""4"",""1"",""3"",""2"",""4"",""4"",""1"",""3"",""2"",""4"",""4"",""1"",""3"",""2"",""4"",""4"",""1"",""3"",""2"",""4"",""4"",""1""]","[0.94,1.406,1.654,1.923,2.116,2.35,2.558,2.766,2.992,3.2,3.423,3.633,4.116,4.424,4.616,4.907,5.125,5.318,5.566,5.752,5.967,6.215,6.499,6.765,7.032,7.281,7.507,7.699,7.938,8.164,8.414,8.673,9.114,9.348,9.513,9.767,10.013]",0,11,11,11,1,41324,,0,1,2021-01-12_17h47.41.071,Sequence Training,2020.1.3,Win32,60
"[""3"",""4"",""2"",""3"",""1"",""4"",""4"",""2"",""3"",""1"",""4"",""4"",""2"",""3"",""1"",""4"",""4"",""2"",""3"",""1"",""4"",""4"",""2"",""3"",""1"",""4"",""4"",""2"",""3"",""1"",""4"",""4"",""2"",""3"",""1"",""4"",""4"",""2""]","[0.167,1.553,1.783,1.887,2.134,2.271,2.7,2.97,3.073,3.416,3.583,3.866,4.099,4.238,4.506,4.684,4.966,5.2,5.3,5.607,5.817,6.086,6.307,6.398,6.655,6.865,7.149,7.422,7.55,7.815,8.036,8.315,8.631,8.772,8.986,9.165,9.499,9.947]",0,12,12,12,1,42314,,10,1,2021-01-12_17h47.41.071,Sequence Training,2020.1.3,Win32,60
"[""4"",""1"",""3"",""2"",""4"",""4"",""1"",""3"",""2"",""4"",""4"",""1"",""3"",""2"",""4"",""4"",""1"",""3"",""2"",""4"",""4"",""1"",""3"",""2"",""4"",""4"",""1"",""3"",""2"",""4"",""4"",""1"",""3"",""2""]","[0.635,0.901,1.422,1.667,1.934,2.171,2.467,2.753,3.183,3.5,3.8,4.083,4.323,4.558,4.799,5.04,5.286,5.533,5.782,6.02,6.222,6.548,6.956,7.189,7.47,7.731,7.998,8.237,8.481,8.753,9.073,9.348,9.739,10.02]",0,13,13,13,1,41324,,0,1,2021-01-12_17h47.41.071,Sequence Training,2020.1.3,Win32,60
"[""4"",""2"",""3"",""1"",""4"",""4"",""2"",""3"",""1"",""4"",""4"",""2"",""3"",""1"",""4"",""4"",""2"",""3"",""1"",""4"",""4"",""2"",""3"",""1"",""4"",""4"",""2"",""3"",""1"",""4"",""4"",""2"",""3"",""1"",""4"",""4""]","[1.317,1.552,1.637,2.2,2.42,2.718,2.983,3.149,3.407,3.639,3.883,4.134,4.29,4.548,4.735,4.967,5.19,5.315,5.582,5.734,5.998,6.315,6.537,6.781,7.28,7.698,8.098,8.249,8.464,8.614,8.866,9.132,9.27,9.53,9.704,9.98]",0,14,14,14,1,42314,,10,1,2021-01-12_17h47.41.071,Sequence Training,2020.1.3,Win32,60
"[""4"",""1"",""3"",""2"",""4"",""4"",""1"",""3"",""2"",""4"",""4"",""2"",""4"",""1"",""3"",""2"",""4"",""4"",""1"",""3"",""2"",""4"",""4"",""1"",""3"",""2"",""4"",""4"",""1"",""3"",""2"",""4"",""4""]","[0.621,0.917,1.217,1.419,1.583,1.833,2.333,2.566,2.872,3.084,3.333,3.641,4.565,4.952,5.299,5.483,5.666,5.922,6.206,6.649,6.964,7.199,7.436,7.732,8.006,8.214,8.387,8.64,8.865,9.086,9.33,9.547,9.797]",0,15,15,15,1,41324,,10,1,2021-01-12_17h47.41.071,Sequence Training,2020.1.3,Win32,60
"[""4"",""1"",""3"",""2"",""4"",""4"",""1"",""3"",""2"",""4"",""4"",""1"",""3"",""2"",""4"",""4"",""1"",""3"",""2"",""4"",""4"",""1"",""3"",""2"",""4"",""4"",""1"",""3"",""2"",""4"",""4"",""1"",""3"",""2""]","[0.685,0.968,1.251,1.484,1.668,1.976,2.601,3.075,3.418,3.654,3.853,4.123,4.351,4.575,4.733,4.983,5.383,5.689,5.933,6.19,6.5,6.834,7.118,7.355,7.588,7.823,8.083,8.316,8.548,8.782,9.032,9.282,9.584,9.881]",0,16,16,16,1,41324,,10,1,2021-01-12_17h47.41.071,Sequence Training,2020.1.3,Win32,60
"[""4"",""1"",""3"",""2"",""4"",""4"",""1"",""3"",""2"",""4"",""4"",""1"",""3"",""2"",""4"",""4"",""1"",""3"",""2"",""4"",""4"",""1"",""3"",""2"",""4"",""4"",""1"",""3"",""2"",""4"",""4"",""1"",""3"",""2"",""4"",""4"",""1""]","[0.584,0.855,1.156,1.4,1.6,1.866,2.099,2.304,2.523,2.783,3.024,3.432,3.687,3.916,4.149,4.399,4.622,4.953,5.202,5.431,5.632,5.831,6.039,6.281,6.504,6.765,6.998,7.248,7.482,7.732,7.967,8.181,8.436,8.697,8.947,9.301,9.581]",0,17,17,17,1,41324,,10,1,2021-01-12_17h47.41.071,Sequence Training,2020.1.3,Win32,60
"[""3"",""1"",""3"",""2"",""4"",""4"",""1"",""3"",""2"",""4"",""4"",""1"",""3"",""2"",""4"",""4"",""1"",""3"",""2"",""4"",""4"",""1"",""3"",""2"",""4"",""4"",""1"",""3"",""2"",""4"",""4"",""1"",""3"",""2"",""4""]","[0.717,0.983,1.591,1.866,2.049,2.283,2.565,2.783,2.999,3.248,3.449,3.683,3.949,4.182,4.398,4.591,4.853,5.156,5.415,5.648,5.898,6.231,6.631,6.881,7.14,7.38,7.654,7.889,8.12,8.386,8.681,8.98,9.353,9.647,9.93]",0,18,18,18,1,41324,,10,1,2021-01-12_17h47.41.071,Sequence Training,2020.1.3,Win32,60
"[""4"",""1"",""3"",""2"",""4"",""4"",""1"",""3"",""2"",""4"",""4"",""1"",""3"",""2"",""4"",""4"",""1"",""3"",""2"",""4"",""4"",""1"",""3"",""2"",""4"",""4"",""1"",""3"",""2"",""4"",""4"",""1"",""3"",""2"",""4"",""4"",""1"",""3"",""2""]","[0.519,0.784,1.084,1.27,1.551,1.802,2.039,2.256,2.491,2.768,2.984,3.239,3.634,3.905,4.17,4.437,4.684,4.891,5.106,5.383,5.584,5.832,6.05,6.283,6.533,6.735,7.089,7.321,7.566,7.816,8.018,8.281,8.515,8.686,8.851,9.115,9.366,9.664,9.897]",0,19,19,19,1,41324,,10,1,2021-01-12_17h47.41.071,Sequence Training,2020.1.3,Win32,60
"[""4"",""1"",""3"",""2"",""4"",""4"",""1"",""3"",""2"",""4"",""4"",""1"",""3"",""2"",""4"",""4"",""1"",""3"",""2"",""4"",""4"",""1"",""3"",""2"",""4"",""4"",""1"",""3"",""2"",""4"",""4"",""1"",""3"",""2""]","[0.552,0.833,1.258,1.616,1.849,2.066,2.282,2.515,2.74,2.999,3.205,3.465,3.721,3.889,4.165,4.415,4.831,5.19,5.406,5.652,5.881,6.098,6.414,6.631,6.93,7.147,7.681,7.963,8.169,8.53,8.786,9.285,9.746,10.019]",0,20,20,20,1,41324,,10,1,2021-01-12_17h47.41.071,Sequence Training,2020.1.3,Win32,60
"[""4"",""1"",""3"",""2"",""4"",""4"",""1"",""3"",""2"",""4"",""4"",""1"",""3"",""2"",""4"",""4"",""1"",""3"",""2"",""4"",""4"",""1"",""3"",""2"",""4"",""4"",""1"",""3"",""2"",""4"",""4"",""1"",""3"",""2""]","[0.652,0.938,1.3,1.5,1.767,2,2.284,2.551,2.789,3.034,3.268,3.533,4.133,4.367,4.6,4.85,5.082,5.416,5.666,5.949,6.181,6.469,7.015,7.215,7.453,7.665,7.899,8.231,8.448,8.698,8.917,9.197,9.514,9.736]",0,21,21,21,1,41324,,0,1,2021-01-12_17h47.41.071,Sequence Training,2020.1.3,Win32,60
