Key_Response.keys,Key_Response.rt,trials.thisRepN,trials.thisTrialN,trials.thisN,trials.thisIndex,trials.ran,Sequences,Repeat,BreakTime,session,date,expName,psychopyVersion,OS,frameRate
"[""4"",""1"",""3"",""2"",""4"",""4"",""1"",""3"",""2"",""4"",""4"",""1"",""3"",""2"",""4"",""4"",""1"",""3"",""2"",""4""]","[1.303,1.629,2.163,2.547,2.857,3.462,3.785,4.392,5.295,5.941,6.475,6.746,7.33,7.58,7.892,8.545,8.878,9.413,9.708,10.024]",0,0,0,0,1,41324,,10,1,2020-12-29_14h07.25.778,Sequence Training,2020.1.3,Win32,60
"[""4"",""1"",""3"",""2"",""4"",""4"",""1"",""3"",""2"",""4"",""4"",""1"",""3"",""2"",""4"",""4"",""1"",""3"",""2"",""4"",""4"",""1"",""3""]","[0.855,1.189,1.453,1.799,2.119,2.619,2.938,3.355,3.66,4.059,5.035,5.438,5.87,6.188,6.452,6.988,7.633,7.966,8.287,8.551,9.036,9.334,9.855]",0,1,1,1,1,41324,,10,1,2020-12-29_14h07.25.778,Sequence Training,2020.1.3,Win32,60
"[""4"",""1"",""3"",""2"",""4"",""4"",""1"",""3"",""2"",""4"",""4"",""1"",""3"",""2"",""4"",""4"",""2"",""3"",""2"",""4"",""4"",""1""]","[1.27,1.534,1.843,2.166,2.368,2.854,3.307,3.722,4.034,4.306,4.806,5.083,5.388,5.707,6,6.388,7.187,8.055,8.284,8.693,9.257,9.639]",0,2,2,2,1,41324,,10,1,2020-12-29_14h07.25.778,Sequence Training,2020.1.3,Win32,60
"[""4"",""1"",""3"",""2"",""4"",""4"",""1"",""3"",""2"",""4"",""4"",""1"",""3"",""2"",""4"",""4"",""1"",""3"",""2"",""4"",""4"",""1"",""3""]","[1.156,1.488,1.931,2.252,2.537,3.167,3.514,3.869,4.203,4.452,5.098,5.549,5.961,6.334,6.584,7.217,7.536,7.952,8.334,8.648,9.306,9.613,9.889]",0,3,3,3,1,41324,,10,1,2020-12-29_14h07.25.778,Sequence Training,2020.1.3,Win32,60
"[""4"",""1"",""3"",""2"",""4"",""4"",""1"",""3"",""2"",""4"",""4"",""1"",""3"",""2"",""4"",""4"",""1"",""3"",""2"",""4"",""4"",""1""]","[0.994,1.34,1.687,2.077,2.34,3.022,3.458,3.874,4.187,4.472,5.215,5.688,6.09,6.486,6.763,7.377,7.771,8.222,8.541,8.805,9.411,9.958]",0,4,4,4,1,41324,,30,1,2020-12-29_14h07.25.778,Sequence Training,2020.1.3,Win32,60
"[""4"",""1"",""3"",""2"",""4"",""4"",""1"",""3"",""2"",""4"",""4"",""1"",""3"",""2"",""4"",""4"",""1"",""3"",""2"",""4"",""1"",""4"",""1"",""2"",""3""]","[0.632,0.952,1.264,1.549,1.848,2.453,2.716,3.035,3.333,3.646,4.202,4.479,4.835,5.143,5.452,6.032,6.355,6.618,6.951,7.25,7.87,8.751,9.084,9.48,9.786]",0,5,5,5,1,41324,,0,1,2020-12-29_14h07.25.778,Sequence Training,2020.1.3,Win32,60
"[""4"",""4"",""2"",""3"",""1"",""4"",""4"",""2"",""3"",""1"",""4"",""4"",""2"",""3"",""1"",""4"",""4"",""2"",""3"",""1"",""4"",""4""]","[0.347,1.731,1.98,2.263,2.562,2.812,3.45,3.756,4.118,4.45,4.686,5.404,5.784,6.013,6.367,6.681,7.499,7.951,8.203,8.534,8.848,9.93]",0,6,6,6,1,42314,,10,1,2020-12-29_14h07.25.778,Sequence Training,2020.1.3,Win32,60
"[""4"",""1"",""3"",""2"",""4"",""4"",""1"",""3"",""2"",""4"",""4"",""1"",""3"",""2"",""4"",""4"",""1"",""3"",""2"",""4"",""4"",""1"",""3"",""2"",""4""]","[0.603,0.931,1.264,1.598,1.882,2.455,2.799,3.133,3.429,3.714,4.284,4.619,5.36,5.653,5.931,6.508,6.812,7.37,7.666,7.93,8.543,8.846,9.277,9.544,9.867]",0,7,7,7,1,41324,,0,1,2020-12-29_14h07.25.778,Sequence Training,2020.1.3,Win32,60
"[""4"",""2"",""3"",""1"",""4"",""4"",""2"",""3"",""1"",""4"",""4"",""2"",""3"",""1"",""4"",""4"",""2"",""3"",""1"",""4""]","[1.752,2.183,2.431,2.729,3.036,3.729,4.07,4.368,4.833,5.103,5.764,6.717,7.001,7.681,7.966,8.632,8.924,9.199,9.62,9.931]",0,8,8,8,1,42314,,10,1,2020-12-29_14h07.25.778,Sequence Training,2020.1.3,Win32,60
"[""4"",""1"",""3"",""2"",""4"",""4"",""1"",""2"",""3"",""4"",""4"",""1"",""3"",""2"",""4"",""4"",""1"",""3"",""2"",""4""]","[1.046,1.4,1.735,2.15,2.582,3.317,3.685,4.157,5.102,5.665,6.4,6.56,7.019,7.331,7.602,8.188,8.546,8.921,9.317,9.567]",0,9,9,9,1,41324,,0,1,2020-12-29_14h07.25.778,Sequence Training,2020.1.3,Win32,60
"[""4"",""2"",""3"",""1"",""4"",""4"",""2"",""3"",""1"",""4"",""4"",""2"",""3"",""1"",""4"",""4"",""2"",""3"",""1"",""4""]","[0.919,1.334,1.702,2.134,2.466,3.433,3.849,4.216,4.557,4.903,5.758,6.202,6.563,7.049,7.396,8.272,8.702,9.084,9.535,9.882]",0,10,10,10,1,42314,,10,1,2020-12-29_14h07.25.778,Sequence Training,2020.1.3,Win32,60
"[""4"",""1"",""3"",""2"",""4"",""4"",""1"",""3"",""2"",""4"",""4"",""1"",""3"",""2"",""4"",""4"",""1"",""3"",""2""]","[1.655,2.085,2.501,2.868,3.21,4.035,4.453,4.821,5.237,5.57,6.322,6.702,7.133,7.526,7.834,8.632,9.035,9.403,9.799]",0,11,11,11,1,41324,,0,1,2020-12-29_14h07.25.778,Sequence Training,2020.1.3,Win32,60
"[""4"",""4"",""2"",""3"",""1"",""4"",""4"",""2"",""3"",""1"",""4"",""4"",""2"",""3"",""1"",""4"",""4"",""2"",""3"",""1"",""4""]","[0.103,1.208,1.584,2.131,2.501,2.82,3.77,4.131,4.485,4.869,5.2,6.152,6.582,6.903,7.2,7.485,8.318,8.735,9.034,9.688,9.939]",0,12,12,12,1,42314,,10,1,2020-12-29_14h07.25.778,Sequence Training,2020.1.3,Win32,60
"[""4"",""1"",""3"",""2"",""4"",""4"",""1"",""3"",""2"",""4"",""4"",""1"",""3"",""2"",""4"",""4"",""1"",""3"",""2"",""4"",""4"",""1"",""3""]","[1.065,1.473,1.906,2.285,2.606,3.216,3.619,3.924,4.292,4.606,5.271,5.591,5.987,6.32,6.64,7.307,7.641,7.974,8.306,8.605,9.223,9.543,9.924]",0,13,13,13,1,41324,,0,1,2020-12-29_14h07.25.778,Sequence Training,2020.1.3,Win32,60
"[""2"",""4"",""4"",""2"",""3"",""1"",""4"",""4"",""2"",""3"",""1"",""4"",""4"",""2"",""3"",""1"",""4"",""4"",""2"",""3"",""1"",""4"",""4""]","[0.215,0.522,1.716,2.148,2.466,2.78,3.098,3.801,4.146,4.446,4.764,5.098,5.785,6.215,6.549,6.882,7.196,7.834,8.397,8.667,9.008,9.313,9.917]",0,14,14,14,1,42314,,10,1,2020-12-29_14h07.25.778,Sequence Training,2020.1.3,Win32,60
"[""4"",""1"",""3"",""2"",""4"",""4"",""1"",""3"",""2"",""4"",""4"",""1"",""2"",""3"",""2"",""4"",""4"",""1""]","[1.619,1.988,2.326,2.785,3.154,4.631,4.959,5.275,5.618,5.903,6.57,6.953,7.32,7.987,8.306,8.57,9.394,9.757]",0,15,15,15,1,41324,,10,1,2020-12-29_14h07.25.778,Sequence Training,2020.1.3,Win32,60
"[""4"",""1"",""3"",""2"",""4"",""4"",""1"",""3"",""2"",""4"",""4"",""1"",""3"",""4"",""4"",""1"",""3"",""2"",""4""]","[1.089,1.549,1.939,2.285,2.537,3.335,3.751,4.132,4.467,4.696,5.556,5.992,6.619,7.286,8.106,8.466,8.905,9.223,9.501]",0,16,16,16,1,41324,,10,1,2020-12-29_14h07.25.778,Sequence Training,2020.1.3,Win32,60
"[""4"",""1"",""3"",""2"",""4"",""4"",""1"",""3"",""2"",""4"",""4"",""1"",""3"",""2"",""4"",""4"",""1"",""3"",""2"",""4""]","[0.89,1.391,1.758,2.119,2.431,3.198,3.557,3.869,4.202,4.487,5.321,5.869,6.369,6.724,7.008,7.897,8.257,8.802,9.119,9.431]",0,17,17,17,1,41324,,10,1,2020-12-29_14h07.25.778,Sequence Training,2020.1.3,Win32,60
"[""4"",""1"",""3"",""2"",""4"",""4"",""1"",""3"",""2"",""4"",""4"",""1"",""3"",""2"",""4"",""4"",""1"",""3"",""2"",""4"",""4""]","[0.98,1.385,1.766,2.085,2.349,2.995,3.507,3.856,4.261,4.577,5.25,5.576,5.897,6.264,6.55,7.348,8.001,8.338,8.668,9.016,10.016]",0,18,18,18,1,41324,,10,1,2020-12-29_14h07.25.778,Sequence Training,2020.1.3,Win32,60
"[""4"",""1"",""3"",""2"",""4"",""4"",""1"",""3"",""2"",""4"",""4"",""1"",""3"",""2"",""4"",""4"",""1"",""3"",""2"",""4""]","[0.895,1.368,1.736,2.013,2.333,3.097,3.466,3.847,4.202,4.515,5.263,5.652,6.07,6.432,6.714,7.664,8.214,8.685,9.249,9.561]",0,19,19,19,1,41324,,10,1,2020-12-29_14h07.25.778,Sequence Training,2020.1.3,Win32,60
"[""4"",""1"",""3"",""2"",""4"",""4"",""1"",""3"",""2"",""4"",""4"",""1"",""3"",""2"",""4"",""4"",""1"",""3"",""2"",""3""]","[0.772,1.187,1.548,1.902,2.215,2.986,3.479,3.917,4.211,4.52,5.27,5.689,6.321,6.701,6.965,7.987,8.34,8.878,9.367,9.569]",0,20,20,20,1,41324,,10,1,2020-12-29_14h07.25.778,Sequence Training,2020.1.3,Win32,60
"[""4"",""1"",""3"",""2"",""4"",""4"",""1"",""3"",""2"",""4"",""4"",""1"",""3"",""2"",""4"",""4"",""1"",""3"",""2""]","[0.792,1.327,1.73,2.098,2.375,3.146,3.544,3.954,4.348,4.646,5.577,6.042,6.495,6.862,7.195,8.562,8.989,9.627,9.98]",0,21,21,21,1,41324,,0,1,2020-12-29_14h07.25.778,Sequence Training,2020.1.3,Win32,60
