Key_Response.keys,Key_Response.rt,trials.thisRepN,trials.thisTrialN,trials.thisN,trials.thisIndex,trials.ran,Sequences,Repeat,BreakTime,session,date,expName,psychopyVersion,OS,frameRate
"[""4"",""1"",""3"",""2"",""4"",""4"",""1"",""3"",""2"",""4"",""4"",""1"",""3"",""2"",""4"",""4""]","[1.169,1.515,2.318,2.657,3.115,4.107,4.453,4.965,5.247,5.796,6.495,7.175,7.779,8.114,8.636,9.292]",0,0,0,0,1,41324,,10,1,2020-10-06_06h07.00.178,Sequence Training,2020.1.3,Win32,60
"[""4"",""1"",""3"",""2"",""4"",""4"",""1"",""3"",""2"",""4"",""4"",""1"",""3"",""2"",""4"",""4"",""1"",""3"",""2"",""4""]","[0.844,1.272,1.997,2.288,2.587,3.474,3.809,4.309,4.57,4.818,5.776,6.078,6.661,7.009,7.404,8.126,8.57,9.075,9.342,9.608]",0,1,1,1,1,41324,,10,1,2020-10-06_06h07.00.178,Sequence Training,2020.1.3,Win32,60
"[""4"",""1"",""3"",""2"",""4"",""4"",""1"",""3"",""2"",""4"",""4"",""1"",""3"",""2"",""4"",""4"",""1"",""3"",""2"",""4"",""4"",""1"",""3""]","[1.208,1.514,1.853,2.156,2.458,3.05,3.342,3.835,4.152,4.393,5.493,5.859,6.214,6.483,6.725,7.527,7.86,8.213,8.449,8.687,9.349,9.652,9.974]",0,2,2,2,1,41324,,10,1,2020-10-06_06h07.00.178,Sequence Training,2020.1.3,Win32,60
"[""4"",""1"",""3"",""2"",""4"",""4"",""1"",""3"",""2"",""4"",""4"",""1"",""3"",""2"",""4"",""4"",""1"",""3"",""2"",""4"",""4"",""1"",""3"",""2"",""4"",""4"",""1"",""3"",""2""]","[0.638,0.939,1.228,1.477,1.705,2.413,2.695,3.044,3.281,3.483,4.1,4.42,4.836,5.052,5.27,5.7,6.011,6.326,6.541,6.796,7.377,7.821,8.154,8.355,8.558,9.161,9.435,9.767,9.989]",0,3,3,3,1,41324,,10,1,2020-10-06_06h07.00.178,Sequence Training,2020.1.3,Win32,60
"[""4"",""1"",""3"",""2"",""4"",""4"",""1"",""3"",""2"",""4"",""4"",""1"",""3"",""2"",""4"",""4"",""1"",""3"",""2"",""4"",""4"",""1"",""3"",""2"",""4"",""4"",""1"",""3"",""2"",""4"",""4""]","[0.646,0.934,1.231,1.455,1.693,2.097,2.321,2.644,2.862,3.075,3.453,3.704,3.992,4.217,4.452,5.087,5.392,5.998,6.222,6.426,7.033,7.246,7.536,7.758,7.947,8.287,8.478,8.734,8.962,9.146,9.883]",0,4,4,4,1,41324,,30,1,2020-10-06_06h07.00.178,Sequence Training,2020.1.3,Win32,60
"[""4"",""1"",""3"",""2"",""4"",""4"",""1"",""3"",""2"",""4"",""4"",""1"",""3"",""2"",""4"",""4"",""1"",""3"",""2"",""4"",""4"",""1"",""3"",""2"",""4"",""4"",""1"",""3"",""2""]","[0.82,1.297,1.633,1.864,2.098,2.477,2.802,3.106,3.352,3.595,3.877,4.31,4.603,4.859,5.141,5.651,5.96,6.27,6.531,6.82,7.114,7.422,7.693,7.964,8.246,8.99,9.306,9.614,9.885]",0,5,5,5,1,41324,,0,1,2020-10-06_06h07.00.178,Sequence Training,2020.1.3,Win32,60
"[""4"",""4"",""1"",""3"",""2"",""4"",""4"",""1"",""4"",""2"",""3"",""1"",""4"",""4"",""2"",""3"",""1"",""4"",""4"",""2"",""3"",""1""]","[0.086,0.359,0.684,0.997,1.238,1.534,1.849,2.136,4.984,5.357,5.657,6.068,6.341,6.806,7.19,7.533,7.886,8.173,8.752,9.334,9.606,9.89]",0,6,6,6,1,42314,,10,1,2020-10-06_06h07.00.178,Sequence Training,2020.1.3,Win32,60
"[""4"",""1"",""3"",""2"",""4"",""4"",""1"",""3"",""2"",""4"",""4"",""1"",""3"",""2"",""4"",""4"",""1"",""3"",""2"",""4"",""4"",""1"",""3"",""2"",""4"",""4"",""1"",""3"",""2"",""4""]","[0.785,0.988,1.251,1.477,1.706,2.051,2.621,2.925,3.153,3.389,3.766,4,4.274,4.473,4.721,5.522,5.892,6.241,6.472,6.753,7.225,7.433,7.936,8.101,8.268,8.676,8.85,9.076,9.277,9.442]",0,7,7,7,1,41324,,0,1,2020-10-06_06h07.00.178,Sequence Training,2020.1.3,Win32,60
"[""4"",""2"",""3"",""1"",""4"",""4"",""2"",""3"",""1"",""4"",""4"",""1"",""2"",""3"",""1"",""4"",""4"",""2"",""3"",""1"",""4"",""4""]","[0.136,0.987,1.342,1.638,1.9,2.568,3.017,3.252,3.499,3.782,4.482,4.718,5.951,6.184,6.732,6.968,7.507,7.862,8.226,8.595,8.903,9.684]",0,8,8,8,1,42314,,10,1,2020-10-06_06h07.00.178,Sequence Training,2020.1.3,Win32,60
"[""4"",""1"",""3"",""2"",""4"",""4"",""1"",""3"",""2"",""4"",""4"",""1"",""3"",""2"",""4"",""4"",""1"",""3"",""2"",""4"",""4""]","[0.731,0.999,1.689,1.933,2.154,2.64,2.871,3.218,3.579,3.854,4.667,5.007,5.957,6.176,6.39,6.929,7.176,8.683,8.927,9.15,9.819]",0,9,9,9,1,41324,,0,1,2020-10-06_06h07.00.178,Sequence Training,2020.1.3,Win32,60
"[""1"",""4"",""2"",""3"",""1"",""4"",""4"",""2"",""3"",""1"",""4"",""4"",""2"",""3"",""1"",""4"",""4"",""2"",""3"",""1"",""4"",""4"",""1""]","[0.052,2.111,2.387,2.65,2.971,3.213,3.992,4.308,4.555,4.791,5.01,5.883,6.287,6.533,6.767,6.994,7.578,7.994,8.242,8.528,8.806,9.541,9.822]",0,10,10,10,1,42314,,10,1,2020-10-06_06h07.00.178,Sequence Training,2020.1.3,Win32,60
"[""4"",""1"",""3"",""2"",""4"",""4"",""1"",""3"",""2"",""4"",""4"",""1"",""3"",""2"",""4"",""4"",""1"",""3"",""2"",""4"",""4"",""1"",""3"",""2"",""4"",""4"",""1"",""3""]","[0.691,1.475,2.068,2.34,2.583,3.087,3.301,3.933,4.175,4.403,4.713,5.08,5.411,5.616,5.853,6.117,6.377,6.647,6.895,7.203,7.483,7.86,8.217,8.443,8.704,9.066,9.394,9.697]",0,11,11,11,1,41324,,0,1,2020-10-06_06h07.00.178,Sequence Training,2020.1.3,Win32,60
"[""2"",""3"",""1"",""4"",""4"",""2"",""3"",""1"",""4"",""4"",""2"",""3"",""1"",""4"",""4"",""2"",""3"",""1"",""4"",""4"",""2"",""3""]","[0.11,2.402,2.717,2.986,3.408,3.805,4.066,4.402,4.674,5.398,5.713,5.989,6.247,6.539,7.116,7.478,7.766,8.107,8.376,9.133,9.524,9.811]",0,12,12,12,1,42314,,10,1,2020-10-06_06h07.00.178,Sequence Training,2020.1.3,Win32,60
"[""4"",""1"",""3"",""2"",""4"",""4"",""1"",""3"",""2"",""4"",""4"",""1"",""3"",""2"",""4"",""4"",""1"",""3"",""2"",""4"",""4"",""1"",""3"",""2"",""4"",""4"",""1""]","[0.675,1.348,1.652,1.87,2.185,2.696,3.09,3.383,3.607,3.823,4.223,4.647,5.03,5.241,5.473,5.991,6.411,6.741,6.946,7.181,7.513,7.79,8.272,8.473,8.677,9.251,9.622]",0,13,13,13,1,41324,,0,1,2020-10-06_06h07.00.178,Sequence Training,2020.1.3,Win32,60
"[""3"",""2"",""3"",""1"",""4"",""4"",""2"",""3"",""1"",""4"",""4"",""2"",""3"",""1"",""4"",""4"",""2"",""3"",""1"",""4"",""4"",""2"",""3"",""1""]","[0.051,0.222,1.617,2.123,2.386,2.747,3.038,3.299,3.612,4.011,5.073,5.5,5.758,6.202,6.451,6.882,7.213,7.541,7.856,8.229,8.918,9.462,9.705,9.935]",0,14,14,14,1,42314,,10,1,2020-10-06_06h07.00.178,Sequence Training,2020.1.3,Win32,60
"[""4"",""1"",""3"",""2"",""4"",""4"",""1"",""3"",""2"",""4"",""4"",""1"",""3"",""2"",""4"",""4"",""1"",""3"",""2"",""4"",""4""]","[0.655,0.913,1.162,1.372,1.591,2.92,3.355,3.708,3.943,4.191,4.568,5.006,6.023,6.266,6.498,6.935,7.296,7.833,8.681,8.961,9.564]",0,15,15,15,1,41324,,10,1,2020-10-06_06h07.00.178,Sequence Training,2020.1.3,Win32,60
"[""4"",""1"",""3"",""2"",""4"",""4"",""1"",""3"",""2"",""4"",""4"",""1"",""3"",""2"",""4"",""4"",""1"",""3"",""2"",""4"",""4"",""1"",""2""]","[0.742,1.069,1.3,1.52,1.783,2.093,2.493,2.785,3.006,3.196,3.491,3.845,4.185,4.397,4.606,4.98,5.347,5.972,6.192,6.399,6.801,7.158,7.861]",0,16,16,16,1,41324,,10,1,2020-10-06_06h07.00.178,Sequence Training,2020.1.3,Win32,60
"[""4"",""1"",""3"",""2"",""4"",""4"",""1"",""3"",""2"",""4"",""4"",""1"",""3"",""2"",""4"",""4"",""1"",""3"",""2"",""4"",""4"",""1"",""3"",""2""]","[0.708,1.271,1.623,1.855,2.083,2.43,2.8,3.237,3.445,3.63,4.103,4.484,4.923,5.321,5.624,6.443,6.873,7.749,8.025,8.261,8.824,9.179,9.59,9.859]",0,17,17,17,1,41324,,10,1,2020-10-06_06h07.00.178,Sequence Training,2020.1.3,Win32,60
"[""4"",""1"",""3"",""2"",""4"",""4"",""1"",""3"",""2"",""4"",""4"",""1"",""3"",""2"",""4"",""4"",""1"",""3"",""2""]","[0.578,0.963,1.257,1.502,1.752,3.225,3.698,4.072,4.286,4.529,5.696,6.884,7.191,7.434,7.669,8.844,9.186,9.585,9.881]",0,18,18,18,1,41324,,10,1,2020-10-06_06h07.00.178,Sequence Training,2020.1.3,Win32,60
"[""4"",""1"",""3"",""4"",""4"",""1"",""3"",""2"",""4"",""4"",""1"",""3"",""2"",""4"",""4"",""1"",""3"",""2"",""4"",""4"",""1"",""3"",""2"",""4""]","[1.658,2.225,2.489,2.949,3.587,3.913,4.34,4.576,4.798,5.414,5.732,6.039,6.235,6.449,6.72,6.969,7.454,7.665,7.849,8.118,8.38,8.652,8.849,9.006]",0,19,19,19,1,41324,,10,1,2020-10-06_06h07.00.178,Sequence Training,2020.1.3,Win32,60
"[""4"",""1"",""3"",""2"",""4"",""4"",""1"",""3"",""2"",""4"",""4"",""1"",""3"",""2"",""4"",""4"",""1"",""3"",""2"",""4"",""4"",""1"",""2"",""3"",""4"",""4""]","[0.806,1.325,1.542,1.752,1.921,2.25,2.513,2.939,3.142,3.354,3.639,3.943,4.56,4.774,4.972,5.397,5.718,6.264,6.505,6.747,7.402,7.759,8.361,8.708,8.911,9.777]",0,20,20,20,1,41324,,10,1,2020-10-06_06h07.00.178,Sequence Training,2020.1.3,Win32,60
"[""4"",""1"",""3"",""2"",""4"",""4"",""1"",""3"",""2"",""4"",""4"",""1"",""3"",""2"",""4"",""4"",""1"",""3"",""2"",""4"",""4"",""1"",""3"",""2"",""4"",""4"",""1"",""3"",""2"",""4"",""4""]","[0.88,1.155,1.391,1.603,1.8,2.222,2.471,2.723,2.92,3.105,3.499,3.899,4.342,4.567,4.776,5.107,5.505,5.794,6.004,6.24,6.534,6.831,7.158,7.328,7.517,7.979,8.379,8.894,9.113,9.309,9.761]",0,21,21,21,1,41324,,0,1,2020-10-06_06h07.00.178,Sequence Training,2020.1.3,Win32,60
