Key_Response.keys,Key_Response.rt,trials.thisRepN,trials.thisTrialN,trials.thisN,trials.thisIndex,trials.ran,Sequences,Repeat,BreakTime,session,date,expName,psychopyVersion,OS,frameRate
"[""4"",""1"",""3"",""2"",""3"",""3"",""1"",""3"",""2"",""4"",""2"",""3"",""1"",""3"",""2""]","[1.008,1.452,2.122,2.429,2.773,3.332,3.677,5.305,5.631,6.039,7.081,8.089,8.434,9.274,9.858]",0,0,0,0,1,41324,,10,1,2021-01-12_15h47.02.089,Sequence Training,2020.1.3,Win32,60
"[""4"",""1"",""3"",""2"",""4"",""4"",""1"",""3"",""2"",""4"",""4"",""1"",""3"",""4"",""4"",""1"",""3"",""2"",""4"",""4"",""1""]","[0.675,1.01,1.7,1.997,2.39,2.705,2.992,3.399,3.789,4.106,4.465,4.815,5.409,6.123,6.489,6.865,7.267,7.889,8.547,8.95,9.694]",0,1,1,1,1,41324,,10,1,2021-01-12_15h47.02.089,Sequence Training,2020.1.3,Win32,60
"[""4"",""1"",""3"",""2"",""4"",""4"",""1"",""3"",""2"",""4"",""4"",""1"",""3"",""2"",""4"",""4"",""1"",""3"",""2"",""4"",""4"",""1"",""3"",""2"",""4""]","[0.694,1.136,1.414,1.819,2.389,2.821,3.249,3.671,4.042,4.353,4.739,5.118,5.727,5.992,6.268,6.659,6.912,7.432,7.721,8.011,8.41,8.713,9.077,9.52,9.787]",0,2,2,2,1,41324,,10,1,2021-01-12_15h47.02.089,Sequence Training,2020.1.3,Win32,60
"[""4"",""1"",""3"",""2"",""4"",""4"",""1"",""3"",""2"",""4"",""4"",""1"",""3"",""2"",""4"",""4"",""1"",""3"",""2"",""4"",""4"",""1"",""3"",""2"",""4"",""4"",""1"",""3"",""2"",""4"",""4"",""1""]","[0.506,0.777,1.097,1.401,1.721,2.029,2.287,2.693,3.063,3.36,3.652,3.903,4.312,4.571,4.965,5.278,5.509,5.962,6.222,6.546,6.82,7.05,7.5,7.791,8.051,8.363,8.588,8.981,9.247,9.494,9.782,9.996]",0,3,3,3,1,41324,,10,1,2021-01-12_15h47.02.089,Sequence Training,2020.1.3,Win32,60
"[""4"",""1"",""3"",""2"",""4"",""4"",""1"",""3"",""2"",""4"",""4"",""1"",""3"",""2"",""4"",""4"",""1"",""3"",""2"",""4"",""4"",""1"",""3"",""2"",""4"",""4"",""1"",""3"",""2"",""4"",""4"",""1"",""3"",""2"",""4""]","[0.499,0.716,1.035,1.248,1.564,1.83,1.979,2.385,2.644,3.02,3.398,3.596,3.966,4.346,4.641,4.958,5.199,5.6,5.838,6.116,6.404,6.651,7.156,7.349,7.636,7.867,8.067,8.341,8.546,8.819,9.016,9.271,9.604,9.819,9.996]",0,4,4,4,1,41324,,30,1,2021-01-12_15h47.02.089,Sequence Training,2020.1.3,Win32,60
"[""4"",""1"",""3"",""2"",""4"",""4"",""1"",""3"",""2"",""4"",""4"",""1"",""3"",""2"",""4"",""4"",""1"",""3"",""2"",""4"",""4"",""1"",""3"",""2"",""4"",""4"",""1"",""3"",""2"",""4"",""4"",""1"",""3"",""2"",""4"",""4"",""1""]","[0.655,0.889,1.15,1.327,1.551,1.784,1.946,2.285,2.487,2.709,3.02,3.163,3.511,3.687,3.927,4.238,4.376,4.755,4.931,5.252,5.503,5.703,6.159,6.375,6.651,6.946,7.097,7.659,7.817,8.049,8.402,8.676,9.105,9.301,9.542,9.785,9.948]",0,5,5,5,1,41324,,0,1,2021-01-12_15h47.02.089,Sequence Training,2020.1.3,Win32,60
"[""3"",""4"",""2"",""3"",""1"",""3"",""4"",""2"",""3"",""1"",""4"",""4"",""2"",""3"",""1"",""4"",""4"",""2"",""3"",""1"",""4"",""4""]","[0.218,2,2.665,2.915,3.139,3.389,4.125,4.613,4.935,5.208,5.416,5.709,6.026,6.537,6.849,7.151,7.499,7.848,8.405,8.707,8.985,9.273]",0,6,6,6,1,42314,,10,1,2021-01-12_15h47.02.089,Sequence Training,2020.1.3,Win32,60
"[""4"",""1"",""3"",""2"",""4"",""4"",""1"",""3"",""2"",""4"",""4"",""1"",""3"",""2"",""4"",""4"",""1"",""3"",""2"",""4"",""4"",""1"",""3"",""2"",""4"",""4"",""1"",""3"",""2"",""4""]","[0.637,0.867,1.188,1.439,1.807,2.113,2.317,2.937,3.159,3.412,3.84,4.092,4.418,4.674,4.964,5.359,5.59,6.063,6.274,6.584,7.051,7.271,7.667,7.871,8.15,8.577,8.795,9.177,9.378,9.678]",0,7,7,7,1,41324,,0,1,2021-01-12_15h47.02.089,Sequence Training,2020.1.3,Win32,60
"[""4"",""1"",""4"",""2"",""3"",""1"",""4"",""4"",""2"",""3"",""1"",""4"",""4"",""2"",""3"",""1"",""4"",""4"",""2"",""3"",""1"",""4"",""4"",""2""]","[0.057,0.254,1.889,2.168,2.617,2.875,3.13,3.589,4.316,4.624,4.84,5.085,5.411,5.953,6.31,6.627,6.866,7.269,8.135,8.43,8.702,9.128,9.469,9.9]",0,8,8,8,1,42314,,10,1,2021-01-12_15h47.02.089,Sequence Training,2020.1.3,Win32,60
"[""4"",""1"",""3"",""2"",""4"",""4"",""1"",""3"",""2"",""4"",""4"",""1"",""3"",""2"",""4"",""4"",""1"",""3"",""2"",""4"",""4"",""1"",""3"",""2"",""4"",""4"",""1"",""3"",""2""]","[0.55,0.767,1.047,1.246,1.495,1.803,1.952,2.328,2.5,2.747,3.123,3.299,4.62,4.819,5.069,5.349,5.547,5.923,6.103,6.379,6.724,6.945,8.313,8.484,8.724,9.017,9.293,9.773,9.973]",0,9,9,9,1,41324,,0,1,2021-01-12_15h47.02.089,Sequence Training,2020.1.3,Win32,60
"[""4"",""2"",""3"",""1"",""4"",""4"",""2"",""3"",""1"",""4"",""4"",""2"",""3"",""1"",""4"",""4"",""2"",""3"",""1"",""4"",""4"",""2"",""3"",""1"",""4"",""4"",""2""]","[0.203,1.025,1.336,1.593,1.979,2.202,2.604,2.964,3.243,3.521,3.794,4.243,4.494,4.796,5.069,5.441,5.844,6.164,6.432,6.809,7.224,8.11,8.347,8.609,8.844,9.261,9.728]",0,10,10,10,1,42314,,10,1,2021-01-12_15h47.02.089,Sequence Training,2020.1.3,Win32,60
"[""4"",""1"",""3"",""2"",""4"",""4"",""1"",""3"",""2"",""4"",""4"",""1"",""3"",""2"",""4"",""4"",""1"",""3"",""2"",""4"",""4"",""1"",""3"",""2"",""4"",""4"",""1"",""3"",""2"",""4"",""4"",""1"",""3""]","[0.589,0.786,1.05,1.223,1.454,1.781,1.95,2.34,2.499,2.862,3.153,3.37,3.882,4.07,4.337,4.65,4.838,5.261,5.438,5.632,6.02,6.197,6.9,7.099,7.369,7.769,8.1,8.648,8.82,9.033,9.37,9.603,9.949]",0,11,11,11,1,41324,,0,1,2021-01-12_15h47.02.089,Sequence Training,2020.1.3,Win32,60
"[""2"",""4"",""2"",""3"",""1"",""4"",""4"",""2"",""3"",""1"",""4"",""4"",""2"",""3"",""1"",""4"",""4"",""2"",""3"",""1"",""4"",""4"",""2"",""3"",""1"",""4"",""4""]","[0.052,1.287,1.654,1.894,2.143,2.354,3.097,3.443,3.753,3.973,4.318,4.606,4.932,5.245,5.505,5.888,6.24,6.813,7.065,7.353,7.622,7.932,8.249,8.654,9.167,9.453,9.755]",0,12,12,12,1,42314,,10,1,2021-01-12_15h47.02.089,Sequence Training,2020.1.3,Win32,60
"[""4"",""1"",""3"",""2"",""4"",""4"",""1"",""3"",""2"",""4"",""4"",""1"",""3"",""2"",""4"",""4"",""1"",""3"",""2"",""4"",""4"",""1"",""3"",""2"",""4"",""4"",""1"",""3"",""2"",""4"",""4"",""1""]","[0.593,0.785,1.123,1.284,1.577,1.918,2.121,2.467,2.632,2.866,3.207,3.666,4.174,4.363,4.63,4.932,5.117,5.702,5.895,6.113,6.401,6.607,7.166,7.333,7.593,7.921,8.111,8.57,8.733,9.022,9.366,9.812]",0,13,13,13,1,41324,,0,1,2021-01-12_15h47.02.089,Sequence Training,2020.1.3,Win32,60
"[""4"",""2"",""3"",""1"",""4"",""4"",""2"",""3"",""1"",""4"",""4"",""2"",""3"",""1"",""4"",""4"",""2"",""3"",""1"",""4"",""4"",""2"",""3"",""1"",""4"",""4""]","[0.894,1.479,1.756,2.004,2.526,2.769,3.071,3.419,3.649,3.866,4.224,4.549,4.819,5.059,5.309,5.715,6.745,7.028,7.244,7.426,7.701,8.341,8.595,8.863,9.064,9.666]",0,14,14,14,1,42314,,10,1,2021-01-12_15h47.02.089,Sequence Training,2020.1.3,Win32,60
"[""4"",""1"",""3"",""2"",""4"",""4"",""1"",""3"",""2"",""4"",""4"",""1"",""3"",""2"",""4"",""4"",""1"",""3"",""2"",""4"",""4"",""1"",""3"",""2"",""4"",""4"",""1"",""4"",""2"",""4"",""4""]","[0.516,0.756,1.1,1.292,1.481,1.865,2.056,2.34,2.453,2.704,3.025,3.17,3.603,3.741,3.992,4.275,4.461,5.062,5.224,5.54,5.976,6.257,6.733,6.986,7.297,7.574,7.908,8.358,9.162,9.407,9.764]",0,15,15,15,1,41324,,10,1,2021-01-12_15h47.02.089,Sequence Training,2020.1.3,Win32,60
"[""4"",""1"",""3"",""2"",""4"",""4"",""1"",""3"",""2"",""4"",""4"",""1"",""3"",""2"",""4"",""4"",""1"",""3"",""2"",""4"",""4"",""1"",""3"",""2"",""4"",""4"",""1"",""3"",""2"",""4"",""4"",""1"",""3"",""2"",""4"",""4"",""1""]","[0.603,0.804,1.097,1.308,1.526,1.838,2.01,2.394,2.57,2.792,3.185,3.445,3.85,3.993,4.251,4.533,4.737,4.988,5.132,5.405,5.725,5.957,6.319,6.475,6.717,7.002,7.254,7.682,7.833,8.089,8.342,8.534,8.901,9.078,9.314,9.617,9.819]",0,16,16,16,1,41324,,10,1,2021-01-12_15h47.02.089,Sequence Training,2020.1.3,Win32,60
"[""4"",""1"",""3"",""2"",""4"",""4"",""1"",""2"",""3"",""4"",""4"",""1"",""3"",""2"",""4"",""4"",""1"",""3"",""2"",""4"",""4"",""1"",""3"",""2"",""4"",""4"",""1"",""3"",""2"",""4"",""4"",""1""]","[0.54,0.709,0.943,1.099,1.266,1.563,1.763,2.044,2.799,2.99,3.301,3.534,3.942,4.085,4.306,4.624,4.841,5.318,5.483,5.676,5.924,6.39,6.979,7.212,7.566,7.766,8.034,8.534,8.676,8.933,9.159,9.369]",0,17,17,17,1,41324,,10,1,2021-01-12_15h47.02.089,Sequence Training,2020.1.3,Win32,60
"[""4"",""1"",""3"",""2"",""4"",""4"",""1"",""3"",""2"",""4"",""4"",""1"",""3"",""2"",""4"",""4"",""1"",""3"",""2"",""4"",""4"",""1"",""3"",""2"",""4"",""4"",""1"",""3"",""2"",""4"",""4"",""1"",""3"",""2"",""4""]","[0.542,0.781,1.026,1.2,1.357,1.618,1.789,2.331,2.498,2.759,2.985,3.171,3.515,3.705,3.986,4.482,4.695,5.105,5.382,5.47,5.676,6.012,6.414,6.562,6.8,7.027,7.301,7.875,8,8.292,8.565,8.881,9.401,9.561,9.862]",0,18,18,18,1,41324,,10,1,2021-01-12_15h47.02.089,Sequence Training,2020.1.3,Win32,60
"[""3"",""2"",""4"",""4"",""1"",""2"",""4"",""4"",""1"",""3"",""2"",""4"",""4"",""1"",""3"",""2"",""4"",""4"",""1"",""3"",""2"",""4"",""4"",""1"",""3"",""2"",""4"",""4""]","[1.493,1.654,2.088,2.505,2.983,3.474,3.657,4.083,4.258,4.75,4.952,5.156,5.477,5.726,6.244,6.392,6.615,6.852,7.12,7.644,7.797,8.061,8.287,8.571,9.073,9.245,9.484,9.741]",0,19,19,19,1,41324,,10,1,2021-01-12_15h47.02.089,Sequence Training,2020.1.3,Win32,60
"[""4"",""1"",""3"",""2"",""4"",""4"",""1"",""3"",""2"",""4"",""4"",""1"",""3"",""2"",""4"",""4"",""1"",""3"",""2"",""1"",""3"",""2"",""4"",""4"",""1"",""3"",""2"",""4"",""4"",""1"",""3"",""2"",""4"",""4"",""1""]","[0.447,0.67,0.998,1.261,1.48,1.706,1.91,2.246,2.442,2.686,2.904,3.113,3.499,3.673,3.897,4.101,4.365,4.739,4.926,5.58,5.955,6.121,6.338,6.576,6.883,7.246,7.409,7.687,7.91,8.356,8.695,8.896,9.197,9.416,9.772]",0,20,20,20,1,41324,,10,1,2021-01-12_15h47.02.089,Sequence Training,2020.1.3,Win32,60
"[""4"",""1"",""3"",""2"",""4"",""4"",""1"",""3"",""2"",""4"",""4"",""1"",""3"",""2"",""4"",""4"",""1"",""3"",""2"",""4"",""4"",""1"",""3"",""2"",""4"",""4"",""1"",""3"",""2"",""4"",""4"",""1"",""3"",""2"",""4""]","[0.475,0.682,0.967,1.153,1.383,1.623,1.874,2.225,2.4,2.686,2.872,3.124,3.452,3.836,4.266,4.526,4.744,5.236,5.389,5.667,5.881,6.091,6.723,6.899,7.153,7.356,7.614,7.95,8.118,8.444,8.659,8.93,9.419,9.627,9.842]",0,21,21,21,1,41324,,0,1,2021-01-12_15h47.02.089,Sequence Training,2020.1.3,Win32,60
