Key_Response.keys,Key_Response.rt,trials.thisRepN,trials.thisTrialN,trials.thisN,trials.thisIndex,trials.ran,Sequences,Repeat,BreakTime,session,date,expName,psychopyVersion,OS,frameRate
"[""4"",""1"",""3"",""2"",""4"",""4"",""1"",""3"",""2"",""4"",""4"",""1"",""3"",""2"",""4"",""4"",""1"",""3"",""2"",""4"",""4"",""1"",""3"",""2"",""4"",""4"",""1"",""3"",""2"",""4"",""4"",""1""]","[1.038,1.315,1.602,1.81,2.052,2.62,2.87,3.299,3.494,3.754,4.118,4.37,4.662,4.849,5.056,5.349,5.544,5.815,5.983,6.184,6.442,6.822,7.249,7.417,7.6,7.886,8.094,8.517,8.711,8.865,9.201,10.02]",0,0,0,0,1,41324,,10,1,2020-12-29_13h36.57.504,Sequence Training,2020.1.3,Win32,60
"[""4"",""1"",""3"",""2"",""4"",""4"",""1"",""3"",""2"",""4"",""4"",""1"",""3"",""2"",""4"",""4"",""1"",""3"",""2"",""4"",""4"",""1"",""3"",""2"",""4"",""4"",""1"",""3"",""2"",""4"",""4"",""1"",""3"",""2"",""4"",""4"",""1"",""3""]","[0.585,0.776,0.973,1.113,1.296,1.563,1.688,1.997,2.135,2.331,2.613,2.75,3.009,3.153,3.353,3.666,3.798,4.118,4.242,4.45,4.747,4.872,5.163,6.199,6.333,6.63,6.781,7.371,7.563,7.721,8.296,8.447,8.665,8.783,8.981,9.263,9.435,9.855]",0,1,1,1,1,41324,,10,1,2020-12-29_13h36.57.504,Sequence Training,2020.1.3,Win32,60
"[""4"",""1"",""3"",""2"",""4"",""4"",""1"",""3"",""2"",""4"",""4"",""1"",""3"",""2"",""4"",""4"",""1"",""3"",""2"",""4"",""4"",""1"",""3"",""2"",""4"",""4"",""1"",""3"",""2"",""4"",""4"",""1"",""3"",""2"",""4"",""4"",""1"",""3"",""2"",""4"",""4"",""1"",""3"",""2"",""4""]","[0.444,0.578,0.81,0.949,1.127,1.382,1.516,1.799,1.934,2.128,2.416,2.543,2.817,2.983,3.193,3.515,3.645,4.141,4.316,4.511,4.849,4.966,5.334,5.484,5.688,6.011,6.125,6.415,6.551,6.749,7.085,7.169,7.609,7.751,7.907,8.203,8.299,8.615,8.801,8.937,9.249,9.351,9.632,9.819,9.975]",0,2,2,2,1,41324,,10,1,2020-12-29_13h36.57.504,Sequence Training,2020.1.3,Win32,60
"[""4"",""1"",""3"",""2"",""4"",""4"",""1"",""3"",""2"",""4"",""4"",""1"",""3"",""2"",""4"",""4"",""1"",""3"",""2"",""4"",""4"",""1"",""3"",""2"",""4"",""4"",""1"",""3"",""2"",""4"",""4"",""1"",""3"",""2"",""4"",""4"",""1"",""3"",""2"",""4"",""4"",""1""]","[0.376,0.465,0.651,0.768,0.917,1.137,1.243,1.585,1.702,1.85,2.081,2.233,2.628,2.738,2.882,3.168,3.298,3.686,3.781,3.932,4.27,4.385,4.771,4.865,4.989,5.337,5.448,5.817,5.891,6.037,6.431,6.527,7.037,7.131,7.267,7.765,8.111,8.549,8.661,8.799,9.407,9.504]",0,3,3,3,1,41324,,10,1,2020-12-29_13h36.57.504,Sequence Training,2020.1.3,Win32,60
"[""4"",""1"",""3"",""2"",""4"",""4"",""1"",""3"",""2"",""4"",""4"",""1"",""3"",""2"",""4"",""4"",""1"",""3"",""2"",""4"",""4"",""1"",""3"",""2"",""4"",""1"",""1"",""3"",""2"",""4"",""4"",""1"",""3"",""2"",""4"",""4"",""1"",""3"",""2"",""4"",""4"",""1""]","[0.315,0.415,0.598,0.722,0.901,1.143,1.239,1.451,1.598,1.793,2.015,2.145,2.395,2.555,2.754,3.119,3.211,3.693,3.853,4.015,4.325,4.419,4.699,4.811,4.971,5.315,6.324,6.758,6.849,6.992,7.299,7.406,7.826,7.915,8.042,8.399,8.477,8.815,8.915,9.032,9.733,9.819]",0,4,4,4,1,41324,,30,1,2020-12-29_13h36.57.504,Sequence Training,2020.1.3,Win32,60
"[""4"",""1"",""3"",""2"",""4"",""4"",""1"",""3"",""2"",""4"",""4"",""1"",""3"",""2"",""4"",""4"",""1"",""3"",""2"",""4"",""4"",""1"",""3"",""4"",""4"",""4"",""1"",""3"",""2"",""4"",""4"",""1"",""3"",""2"",""4"",""4"",""1"",""3"",""2"",""4""]","[0.439,0.555,0.738,0.89,1.034,1.261,1.355,1.575,1.703,1.863,2.117,2.217,2.423,2.553,2.721,2.985,3.177,3.617,3.717,3.863,4.203,4.344,4.85,5,6.254,6.716,6.86,7.128,7.206,7.366,7.644,7.75,8.283,8.378,8.558,8.905,8.995,9.307,9.402,9.533]",0,5,5,5,1,41324,,0,1,2020-12-29_13h36.57.504,Sequence Training,2020.1.3,Win32,60
"[""4"",""2"",""3"",""1"",""4"",""4"",""2"",""3"",""1"",""4"",""4"",""2"",""3"",""1"",""4"",""4"",""2"",""3"",""1"",""4"",""4"",""2"",""3"",""1"",""4"",""4"",""2"",""3"",""1"",""4"",""4"",""2"",""3"",""1""]","[1.154,1.358,1.459,1.6,1.783,2.52,2.638,2.786,2.916,3.1,3.794,4.136,4.296,4.388,4.561,4.908,5.194,5.354,5.512,5.668,6.158,6.378,6.504,6.65,6.802,7.467,7.842,8.133,8.319,8.559,9.217,9.517,9.729,9.866]",0,6,6,6,1,42314,,10,1,2020-12-29_13h36.57.504,Sequence Training,2020.1.3,Win32,60
"[""4"",""1"",""3"",""2"",""4"",""4"",""1"",""3"",""2"",""4"",""4"",""1"",""3"",""2"",""4"",""4"",""1"",""3"",""2"",""4"",""4"",""1"",""3"",""2"",""4"",""4"",""1"",""3"",""2"",""4"",""4"",""1"",""3"",""2"",""4"",""4"",""1""]","[0.446,0.597,0.807,0.944,1.12,1.423,1.529,2.034,2.219,2.437,2.823,2.929,3.591,3.701,3.884,4.573,4.687,5.166,5.261,5.427,5.741,5.845,6.253,6.357,6.521,6.871,6.967,7.876,8.102,8.25,8.638,8.756,9.133,9.276,9.426,9.754,9.834]",0,7,7,7,1,41324,,0,1,2020-12-29_13h36.57.504,Sequence Training,2020.1.3,Win32,60
"[""4"",""2"",""3"",""1"",""4"",""4"",""2"",""3"",""1"",""4"",""4"",""2"",""3"",""1"",""4"",""4"",""2"",""3"",""1"",""4"",""4"",""2"",""3"",""1"",""4"",""4"",""2"",""3"",""1"",""4"",""4"",""2"",""3"",""1"",""4"",""4"",""2"",""3"",""1""]","[0.956,1.155,1.292,1.484,1.727,2.313,2.487,2.633,2.775,2.967,3.551,3.728,3.907,4.091,4.289,4.687,4.819,5.017,5.175,5.391,5.7,5.868,6.061,6.227,6.441,6.803,7.137,7.585,7.883,8.055,8.339,8.517,8.653,8.85,9.041,9.423,9.584,9.73,9.891]",0,8,8,8,1,42314,,10,1,2020-12-29_13h36.57.504,Sequence Training,2020.1.3,Win32,60
"[""4"",""1"",""3"",""2"",""4"",""4"",""1"",""3"",""2"",""4"",""4"",""1"",""3"",""2"",""4"",""4"",""1"",""3"",""2"",""4"",""4"",""1"",""3"",""2"",""4"",""4"",""1"",""3"",""2"",""4"",""4"",""1"",""3"",""2"",""4"",""4"",""1"",""3"",""2"",""4"",""4"",""1"",""3""]","[0.434,0.641,0.827,0.969,1.133,1.357,1.495,1.875,2.021,2.171,2.454,2.643,3.062,3.212,3.385,3.658,3.817,4.069,4.203,4.4,4.813,4.957,5.405,5.563,5.767,6.067,6.25,6.719,6.861,7.051,7.333,7.488,7.8,7.925,8.105,8.341,8.488,8.9,9.035,9.217,9.55,9.675,9.967]",0,9,9,9,1,41324,,0,1,2020-12-29_13h36.57.504,Sequence Training,2020.1.3,Win32,60
"[""2"",""4"",""4"",""2"",""3"",""1"",""4"",""4"",""2"",""3"",""1"",""4"",""4"",""2"",""3"",""1"",""4"",""4"",""2"",""3"",""1"",""4"",""4"",""2"",""3"",""1"",""4"",""2"",""4"",""2"",""1"",""3"",""2"",""4""]","[0.067,0.217,1.287,1.507,1.635,1.789,1.983,2.45,2.807,2.993,3.123,3.305,3.537,3.725,3.917,4.078,4.303,4.694,5,5.192,5.388,5.622,5.976,6.21,6.45,6.628,6.85,7.338,7.941,8.404,9.34,9.7,9.794,9.96]",0,10,10,10,1,42314,,10,1,2020-12-29_13h36.57.504,Sequence Training,2020.1.3,Win32,60
"[""4"",""1"",""3"",""2"",""4"",""4"",""1"",""3"",""2"",""4"",""4"",""1"",""3"",""2"",""4"",""4"",""1"",""3"",""2"",""4"",""4"",""1"",""3"",""2"",""4"",""4"",""1"",""3"",""2"",""4"",""4"",""1"",""3"",""2"",""4"",""4"",""1""]","[0.492,0.616,0.823,0.963,1.121,1.417,1.525,1.863,2.007,2.199,2.523,2.651,3.029,3.187,3.357,3.647,3.765,4.08,4.197,4.369,4.741,4.84,5.554,5.708,5.913,6.23,6.34,7.064,7.174,7.358,8.27,8.379,8.634,8.713,8.898,9.192,9.302]",0,11,11,11,1,41324,,0,1,2020-12-29_13h36.57.504,Sequence Training,2020.1.3,Win32,60
"[""3"",""4"",""2"",""3"",""1"",""4"",""4"",""2"",""3"",""1"",""4"",""4"",""2"",""3"",""1"",""4"",""4"",""2"",""3"",""1"",""4"",""4"",""2"",""3"",""1"",""4"",""4"",""2"",""3"",""1"",""4"",""4"",""2"",""3"",""1""]","[0.106,1.205,1.39,1.604,1.918,2.184,2.424,2.65,2.866,3.074,3.295,3.55,3.768,3.912,4.096,4.292,4.594,5.044,5.228,5.502,5.722,6.224,6.577,6.78,6.973,7.211,7.569,7.773,7.951,8.513,8.903,9.259,9.5,9.65,9.813]",0,12,12,12,1,42314,,10,1,2020-12-29_13h36.57.504,Sequence Training,2020.1.3,Win32,60
"[""4"",""1"",""3"",""2"",""4"",""4"",""1"",""3"",""2"",""4"",""4"",""1"",""3"",""2"",""4"",""4"",""1"",""3"",""2"",""4"",""4"",""1"",""3"",""2"",""4"",""4"",""1"",""3"",""2"",""4"",""4"",""1"",""3"",""2"",""4""]","[0.573,0.758,1.022,1.188,1.366,1.602,1.784,2.626,2.853,3.088,3.483,3.605,3.959,4.161,4.345,4.645,4.807,5.209,5.381,5.548,5.895,6.075,6.465,6.651,6.849,7.191,7.348,7.849,8.075,8.351,8.777,8.894,9.366,9.544,9.754]",0,13,13,13,1,41324,,0,1,2020-12-29_13h36.57.504,Sequence Training,2020.1.3,Win32,60
"[""4"",""2"",""3"",""1"",""4"",""4"",""2"",""3"",""1"",""4"",""4"",""2"",""3"",""1"",""4"",""4"",""2"",""3"",""1"",""4"",""4"",""2"",""3"",""1"",""4"",""2"",""4"",""2"",""3"",""1"",""4""]","[0.8,1.067,1.225,1.411,2.05,2.329,2.675,2.86,3.04,3.322,3.78,4.136,4.366,4.566,4.796,5.178,5.394,5.628,5.792,6.017,6.528,6.85,7.026,7.209,7.406,7.95,8.568,8.806,8.994,9.537,9.791]",0,14,14,14,1,42314,,10,1,2020-12-29_13h36.57.504,Sequence Training,2020.1.3,Win32,60
"[""4"",""1"",""3"",""2"",""4"",""4"",""1"",""3"",""2"",""4"",""4"",""1"",""3"",""2"",""4"",""4"",""1"",""3"",""2"",""4"",""4"",""1"",""3"",""2"",""4"",""4"",""1"",""3"",""2"",""4"",""4"",""1"",""3"",""2"",""4"",""4"",""1""]","[0.9,1.473,1.753,1.89,2.079,2.287,2.482,2.898,3.064,3.218,3.454,3.582,4.174,4.295,4.47,4.734,4.922,5.482,5.594,5.754,6.032,6.158,6.582,6.674,6.866,7.178,7.295,7.87,7.986,8.152,8.44,8.534,9.062,9.168,9.362,9.595,9.75]",0,15,15,15,1,41324,,10,1,2020-12-29_13h36.57.504,Sequence Training,2020.1.3,Win32,60
"[""4"",""1"",""3"",""2"",""4"",""4"",""1"",""3"",""2"",""4"",""4"",""1"",""3"",""2"",""4"",""4"",""1"",""3"",""2"",""4"",""4"",""1"",""3"",""2"",""4"",""4"",""1"",""3"",""2"",""4"",""4"",""1"",""3"",""2"",""4"",""4"",""1"",""3"",""2"",""4"",""4"",""1"",""3"",""2"",""4""]","[0.486,0.649,0.853,1.01,1.176,1.376,1.488,1.759,1.886,2.077,2.314,2.448,2.686,2.844,3.044,3.293,3.462,3.831,3.986,4.16,4.416,4.538,4.888,5.029,5.199,5.485,5.619,5.937,6.109,6.285,6.689,6.815,7.342,7.526,7.721,8.037,8.201,8.501,8.631,8.811,9.085,9.193,9.619,9.755,9.931]",0,16,16,16,1,41324,,10,1,2020-12-29_13h36.57.504,Sequence Training,2020.1.3,Win32,60
"[""4"",""1"",""3"",""2"",""4"",""4"",""1"",""3"",""2"",""4"",""4"",""1"",""3"",""2"",""4"",""4"",""1"",""3"",""2"",""4"",""4"",""1"",""3"",""2"",""4"",""4"",""1"",""3"",""2"",""4"",""4"",""1"",""3"",""2"",""4"",""4"",""1"",""3"",""2"",""4"",""4"",""1""]","[0.432,0.625,0.821,1.005,1.161,1.367,1.509,1.739,1.911,2.101,2.334,2.482,2.704,2.919,3.16,3.486,3.609,4.005,4.153,4.364,4.631,4.771,5.021,5.193,5.398,5.715,5.893,6.269,6.427,6.615,6.905,7.135,7.631,7.798,7.987,8.285,8.535,8.821,8.96,9.133,9.421,9.591]",0,17,17,17,1,41324,,10,1,2020-12-29_13h36.57.504,Sequence Training,2020.1.3,Win32,60
"[""4"",""1"",""3"",""2"",""4"",""4"",""1"",""3"",""2"",""4"",""4"",""1"",""3"",""2"",""4"",""4"",""1"",""3"",""2"",""4"",""4"",""1"",""3"",""2"",""4"",""4"",""1"",""3"",""2"",""4"",""4"",""1"",""3"",""2"",""4"",""4"",""1"",""2"",""3"",""4"",""4"",""1""]","[0.421,0.593,0.801,0.933,1.127,1.314,1.425,1.63,1.749,1.935,2.175,2.33,2.693,2.857,3.046,3.265,3.369,3.609,3.747,3.991,4.289,4.425,4.68,4.847,5.069,5.421,5.534,5.77,6.042,6.263,6.618,6.722,7.052,7.146,7.305,7.525,7.742,8.022,8.68,8.739,9.253,9.943]",0,18,18,18,1,41324,,10,1,2020-12-29_13h36.57.504,Sequence Training,2020.1.3,Win32,60
"[""4"",""1"",""3"",""2"",""4"",""4"",""1"",""3"",""2"",""4"",""4"",""1"",""3"",""2"",""4"",""4"",""1"",""3"",""2"",""4"",""4"",""1"",""3"",""2"",""4"",""4"",""1"",""3"",""3"",""2"",""4"",""4"",""1"",""3"",""2"",""4"",""4"",""1"",""3"",""2"",""4"",""4"",""1"",""3"",""2"",""4"",""4"",""1""]","[0.448,0.609,0.815,0.935,1.117,1.327,1.437,1.673,1.833,2.041,2.289,2.403,2.657,2.789,2.991,3.231,3.369,3.598,3.749,4.011,4.335,4.455,4.778,4.92,5.112,5.348,5.483,5.754,5.935,6.09,6.307,6.865,6.939,7.181,7.285,7.457,7.699,7.915,8.389,8.455,8.643,8.871,9.005,9.283,9.391,9.582,9.875,10.009]",0,19,19,19,1,41324,,10,1,2020-12-29_13h36.57.504,Sequence Training,2020.1.3,Win32,60
"[""4"",""1"",""3"",""2"",""4"",""4"",""1"",""3"",""2"",""4"",""4"",""1"",""3"",""2"",""4"",""4"",""1"",""3"",""2"",""4"",""4"",""1"",""3"",""2"",""4"",""4"",""1"",""3"",""2"",""4"",""4"",""1"",""3"",""2"",""4"",""4"",""1"",""3"",""2"",""4"",""4"",""1"",""3"",""2"",""4""]","[0.501,0.657,0.83,0.971,1.149,1.337,1.464,1.673,1.791,1.975,2.173,2.303,2.505,2.614,2.814,3.007,3.135,3.351,3.497,3.714,3.921,4.099,4.489,4.58,4.814,5.165,5.299,5.95,6.039,6.226,6.448,6.63,6.942,7.048,7.216,7.632,7.77,8.364,8.441,8.63,9.031,9.18,9.521,9.601,9.757]",0,20,20,20,1,41324,,10,1,2020-12-29_13h36.57.504,Sequence Training,2020.1.3,Win32,60
"[""4"",""1"",""3"",""2"",""4"",""4"",""1"",""3"",""2"",""4"",""4"",""1"",""3"",""2"",""4"",""4"",""1"",""3"",""2"",""4"",""4"",""1"",""3"",""2"",""4"",""4"",""1"",""3"",""2"",""4"",""4"",""1"",""3"",""2"",""4"",""4"",""1"",""3"",""2"",""4"",""4"",""1"",""3"",""2"",""4"",""4"",""1"",""3"",""2""]","[0.295,0.435,0.601,0.733,0.901,1.101,1.213,1.384,1.507,1.683,1.883,2.011,2.201,2.323,2.517,2.729,2.849,3.023,3.173,3.361,3.585,3.699,4.39,4.493,4.657,4.857,4.973,5.201,5.318,5.542,5.791,5.95,6.42,6.519,6.706,6.964,7.092,7.36,7.468,7.674,8.08,8.216,8.52,8.65,8.86,9.082,9.212,9.814,9.906]",0,21,21,21,1,41324,,0,1,2020-12-29_13h36.57.504,Sequence Training,2020.1.3,Win32,60
