Key_Response.keys,Key_Response.rt,trials.thisRepN,trials.thisTrialN,trials.thisN,trials.thisIndex,trials.ran,Sequences,Repeat,BreakTime,session,date,expName,psychopyVersion,OS,frameRate
"[""4"",""1"",""3"",""2"",""4"",""4"",""1"",""3"",""2"",""4"",""4"",""1""]","[1.847,2.307,2.953,3.404,4.037,4.567,5.087,6.123,7.206,7.956,8.405,9.107]",0,0,0,0,1,41324,,10,1,2020-10-06_15h46.18.452,Sequence Training,2020.1.3,Win32,60
"[""4"",""1"",""3"",""2"",""4"",""4"",""1"",""3"",""2"",""4"",""4"",""1"",""3"",""2"",""4"",""4"",""1"",""3"",""2"",""4""]","[1.034,1.423,1.987,2.316,2.807,3.25,3.605,4.393,5.016,5.837,6.288,6.726,7.181,7.506,7.922,8.269,8.915,9.368,9.693,10.027]",0,1,1,1,1,41324,,10,1,2020-10-06_15h46.18.452,Sequence Training,2020.1.3,Win32,60
"[""4"",""1"",""3"",""2"",""4"",""4"",""1"",""3"",""2"",""4"",""4"",""1"",""3"",""2""]","[1.022,1.345,2.227,2.632,3.606,4.756,5.085,6.507,6.839,7.201,7.996,8.433,8.986,9.458]",0,2,2,2,1,41324,,10,1,2020-10-06_15h46.18.452,Sequence Training,2020.1.3,Win32,60
"[""4"",""1"",""3"",""2"",""4"",""4"",""1"",""3"",""2"",""4"",""4"",""1"",""3"",""2"",""4"",""4"",""1"",""3"",""2"",""4"",""4""]","[0.874,1.325,1.954,2.221,2.607,3.34,3.813,4.299,4.514,4.93,5.685,5.97,6.415,6.689,7.089,7.668,8.266,8.633,8.959,9.312,9.903]",0,3,3,3,1,41324,,10,1,2020-10-06_15h46.18.452,Sequence Training,2020.1.3,Win32,60
"[""4"",""1"",""3"",""2"",""4"",""4"",""1"",""3"",""2"",""4"",""4"",""1"",""3"",""2"",""4"",""4"",""1"",""3"",""2"",""4"",""4"",""1"",""3"",""2"",""4"",""4"",""1"",""3"",""2""]","[0.598,0.841,1.147,1.414,1.709,2.064,2.348,2.781,3.174,3.561,3.963,4.244,4.653,4.904,5.186,5.695,5.956,6.292,6.583,6.843,7.264,7.509,7.815,8.067,8.317,9.245,9.45,9.777,10.024]",0,4,4,4,1,41324,,30,1,2020-10-06_15h46.18.452,Sequence Training,2020.1.3,Win32,60
"[""4"",""1"",""3"",""2"",""4"",""4"",""1"",""3"",""2"",""4"",""4"",""1"",""3"",""2"",""4"",""4"",""1"",""3"",""2"",""3"",""4"",""4"",""1"",""3"",""2"",""4"",""4"",""1"",""3"",""2"",""4""]","[0.67,0.882,1.191,1.482,1.715,2.077,2.255,2.508,2.816,3.059,3.419,3.656,4.006,4.265,4.522,4.855,5.127,5.433,5.702,5.996,6.114,6.831,7.119,7.525,7.831,8.104,8.445,8.683,9.045,9.625,9.933]",0,5,5,5,1,41324,,0,1,2020-10-06_15h46.18.452,Sequence Training,2020.1.3,Win32,60
"[""4"",""2"",""3"",""1"",""4"",""4"",""2"",""3"",""1"",""4"",""4"",""2"",""3"",""1""]","[0.992,3.077,3.617,4.017,4.558,5.538,6.051,6.465,7.144,7.508,8.438,8.961,9.311,9.942]",0,6,6,6,1,42314,,10,1,2020-10-06_15h46.18.452,Sequence Training,2020.1.3,Win32,60
"[""4"",""1"",""3"",""2"",""4"",""4"",""1"",""3"",""2"",""4"",""4"",""1""]","[2.12,2.524,5.876,6.158,6.553,7.565,8.063,8.664,8.88,9.229,9.622,10.018]",0,7,7,7,1,41324,,0,1,2020-10-06_15h46.18.452,Sequence Training,2020.1.3,Win32,60
"[""4"",""2"",""3"",""1"",""4"",""4"",""2"",""3"",""1"",""4"",""4""]","[1.755,2.935,3.715,4.809,5.212,6.57,7.139,7.441,7.85,8.368,9.302]",0,8,8,8,1,42314,,10,1,2020-10-06_15h46.18.452,Sequence Training,2020.1.3,Win32,60
"[""4"",""1"",""3"",""2"",""4"",""4"",""1"",""3"",""2"",""4"",""4"",""1"",""3"",""2"",""4"",""4"",""1"",""3"",""2"",""4"",""4""]","[1.086,1.355,2.814,3.111,3.448,3.81,4.091,4.737,5.075,5.483,5.836,6.195,6.562,6.787,7.086,7.397,7.689,8.037,8.292,8.688,9.945]",0,9,9,9,1,41324,,0,1,2020-10-06_15h46.18.452,Sequence Training,2020.1.3,Win32,60
"[""4"",""2"",""3"",""1"",""4"",""4"",""2"",""3"",""1"",""4"",""4"",""2"",""3"",""1"",""4"",""4"",""2"",""3"",""2"",""1""]","[2.028,2.712,2.978,3.39,3.858,4.235,4.551,4.748,5.243,5.603,6.023,6.898,7.152,7.539,7.85,8.234,8.92,9.186,9.641,10.008]",0,10,10,10,1,42314,,10,1,2020-10-06_15h46.18.452,Sequence Training,2020.1.3,Win32,60
"[""4"",""1"",""3"",""2"",""4"",""4"",""1"",""3"",""2"",""4"",""4"",""1"",""3"",""2"",""4"",""4"",""1"",""3""]","[1.644,2.37,4.582,5.135,5.495,5.868,6.233,6.577,6.814,7.159,7.49,7.789,8.338,8.617,8.892,9.19,9.459,9.862]",0,11,11,11,1,41324,,0,1,2020-10-06_15h46.18.452,Sequence Training,2020.1.3,Win32,60
"[""2"",""4"",""2"",""3"",""1"",""4"",""4"",""2"",""3"",""1"",""4"",""4"",""2"",""3"",""1"",""4"",""4"",""2"",""3"",""1"",""4""]","[0.017,1.92,2.666,2.917,3.291,3.618,4.163,4.59,4.801,5.559,6.06,6.511,6.828,7.056,7.624,8.09,8.519,8.902,9.145,9.584,9.869]",0,12,12,12,1,42314,,10,1,2020-10-06_15h46.18.452,Sequence Training,2020.1.3,Win32,60
"[""4"",""1"",""3"",""2"",""4"",""4"",""1"",""3"",""2"",""4"",""4"",""1"",""2"",""3"",""4"",""4"",""1"",""3"",""2"",""4"",""4"",""1"",""3"",""2""]","[0.648,0.994,1.434,1.694,1.993,2.338,2.589,3.085,3.418,4.245,4.61,4.945,5.723,5.766,6.59,7.072,7.337,7.789,8.018,8.309,8.653,8.967,9.473,9.8]",0,13,13,13,1,41324,,0,1,2020-10-06_15h46.18.452,Sequence Training,2020.1.3,Win32,60
"[""4"",""2"",""3"",""1"",""4"",""4"",""2"",""3"",""1"",""4"",""4"",""2"",""3"",""1"",""4"",""4"",""2"",""3"",""1"",""4"",""4""]","[0.038,1.843,2.187,2.518,2.835,3.629,4.218,4.555,5.047,5.454,5.795,6.251,6.539,7.134,7.414,7.83,8.154,8.36,8.818,9.095,9.667]",0,14,14,14,1,42314,,10,1,2020-10-06_15h46.18.452,Sequence Training,2020.1.3,Win32,60
"[""4"",""1"",""3"",""2"",""4"",""4"",""1"",""3"",""2"",""4"",""4"",""1"",""3"",""2"",""4"",""4"",""1"",""3"",""2"",""4"",""4"",""1"",""3"",""2"",""4""]","[1.058,1.357,2.027,2.27,2.543,2.912,3.195,3.608,3.814,4.119,4.516,4.785,5.562,5.805,6.172,6.575,7.186,7.65,7.859,8.157,8.577,8.873,9.408,9.603,9.87]",0,15,15,15,1,41324,,10,1,2020-10-06_15h46.18.452,Sequence Training,2020.1.3,Win32,60
"[""4"",""1"",""3"",""3"",""2"",""4"",""4"",""1"",""3"",""2"",""4"",""4"",""1"",""3"",""2"",""4"",""4"",""1"",""3"",""2"",""4"",""4"",""1"",""3"",""2"",""4"",""4""]","[0.769,1.115,1.66,1.732,2.063,2.322,2.739,3.067,3.483,3.672,3.949,4.31,4.603,5.077,5.316,5.574,5.956,6.26,6.76,7.092,7.345,7.733,8.157,8.633,8.918,9.143,9.687]",0,16,16,16,1,41324,,10,1,2020-10-06_15h46.18.452,Sequence Training,2020.1.3,Win32,60
"[""4"",""1"",""3"",""2"",""4"",""4"",""1"",""3"",""2"",""4"",""4"",""1"",""3"",""2"",""4"",""4"",""1"",""3"",""2"",""4"",""4"",""1"",""3"",""2"",""4"",""4"",""1""]","[0.758,1.199,1.592,1.781,2.059,2.487,2.774,3.108,3.325,3.589,3.969,4.24,4.802,5.132,5.445,5.862,6.17,6.587,6.803,7.067,7.509,7.79,8.157,8.411,8.656,9.525,9.896]",0,17,17,17,1,41324,,10,1,2020-10-06_15h46.18.452,Sequence Training,2020.1.3,Win32,60
"[""4"",""1"",""3"",""2"",""4"",""4"",""1"",""3"",""2"",""4"",""4"",""1"",""3"",""2"",""4"",""4"",""1"",""3"",""2"",""4"",""4"",""1"",""3"",""2"",""4"",""4"",""1""]","[0.675,0.935,1.211,1.441,1.668,2.049,2.263,2.656,2.928,3.274,3.623,3.902,4.225,4.448,4.705,5.146,5.413,5.95,6.35,6.707,7.076,7.339,7.75,8.083,8.559,9.341,9.724]",0,18,18,18,1,41324,,10,1,2020-10-06_15h46.18.452,Sequence Training,2020.1.3,Win32,60
"[""4"",""1"",""3"",""2"",""4"",""4"",""1"",""3"",""2"",""4"",""4"",""1"",""3"",""2"",""4"",""4"",""1"",""3"",""2"",""4"",""4"",""1"",""3"",""2"",""4"",""4"",""1"",""3"",""2"",""4""]","[0.523,0.956,1.287,1.49,1.781,2.148,2.343,2.688,2.907,3.164,3.549,3.815,4.216,4.44,4.684,5.044,5.533,5.899,6.111,6.358,6.741,7.044,7.488,7.783,8.043,8.539,8.87,9.25,9.484,9.728]",0,19,19,19,1,41324,,10,1,2020-10-06_15h46.18.452,Sequence Training,2020.1.3,Win32,60
"[""4"",""1"",""3"",""2"",""4"",""4"",""1"",""3"",""2"",""4"",""4"",""1"",""3"",""2"",""4"",""4"",""1"",""3"",""2"",""4"",""4"",""1"",""3"",""2"",""4"",""4"",""1"",""3"",""2"",""4""]","[0.776,1.041,1.519,1.799,2.032,2.41,2.689,3.043,3.31,3.544,3.974,4.212,4.559,4.749,4.993,5.722,5.783,5.946,6.139,6.373,6.782,7.051,7.409,7.743,8.186,8.553,8.783,9.119,9.321,9.524]",0,20,20,20,1,41324,,10,1,2020-10-06_15h46.18.452,Sequence Training,2020.1.3,Win32,60
"[""4"",""1"",""3"",""2"",""4"",""4"",""1"",""3"",""2"",""4"",""4"",""1"",""3"",""2"",""4"",""4"",""1"",""3"",""2"",""4"",""4"",""1"",""3"",""2"",""4"",""4"",""1""]","[0.54,0.842,1.182,1.441,1.732,2.095,2.359,2.82,3.036,3.272,3.649,4.018,4.804,5.001,5.251,5.622,5.95,6.273,6.467,6.735,7.14,7.389,7.768,7.968,8.235,8.797,9.1]",0,21,21,21,1,41324,,0,1,2020-10-06_15h46.18.452,Sequence Training,2020.1.3,Win32,60
