Key_Response.keys,Key_Response.rt,trials.thisRepN,trials.thisTrialN,trials.thisN,trials.thisIndex,trials.ran,Sequences,Repeat,BreakTime,session,date,expName,psychopyVersion,OS,frameRate
"[""4"",""1"",""3"",""2"",""4"",""4"",""1"",""3"",""2"",""4"",""4"",""1"",""3"",""2"",""4"",""4"",""1"",""3"",""2"",""4"",""4"",""1"",""3"",""2"",""4""]","[0.977,1.14,1.44,1.611,1.94,2.359,2.64,3.393,3.508,4.406,5.18,5.372,5.722,5.89,6.695,7.389,7.658,7.964,8.124,8.378,8.857,9.14,9.458,9.661,9.997]",0,0,0,0,1,41324,,10,1,2021-01-12_16h48.11.699,Sequence Training,2020.1.3,Linux x86_64,60
"[""4"",""1"",""3"",""2"",""4"",""4"",""1"",""3"",""2"",""4"",""4"",""1"",""3"",""2"",""4"",""3"",""4"",""1"",""3"",""2"",""4"",""4""]","[0.736,0.984,1.386,1.553,1.733,2.299,2.533,2.819,3.001,3.219,3.987,4.399,4.817,5.018,5.215,5.785,7.402,7.934,8.269,8.384,8.537,9.122]",0,1,1,1,1,41324,,10,1,2021-01-12_16h48.11.699,Sequence Training,2020.1.3,Linux x86_64,60
"[""4"",""1"",""3"",""2"",""4"",""4"",""1"",""3"",""2"",""4"",""4"",""1"",""3"",""2"",""4"",""4"",""1"",""3"",""2"",""4"",""4"",""1"",""3"",""2"",""4"",""4"",""1"",""3"",""2""]","[0.97,1.195,1.532,1.729,1.881,2.446,2.633,2.996,3.078,3.261,4.061,4.261,4.695,4.73,4.911,5.679,5.96,6.266,6.32,6.494,7.299,7.577,8.176,8.264,8.405,9.131,9.393,9.906,9.942]",0,2,2,2,1,41324,,10,1,2021-01-12_16h48.11.699,Sequence Training,2020.1.3,Linux x86_64,60
"[""4"",""1"",""3"",""2"",""4"",""4"",""1"",""3"",""2"",""4"",""4"",""1"",""3"",""2"",""4"",""4"",""1"",""3"",""2"",""4"",""4"",""1"",""3"",""2"",""4"",""4"",""1"",""3"",""2"",""4"",""4"",""1"",""3"",""2"",""4""]","[1.466,1.678,1.92,2.014,2.195,2.611,2.819,3.516,3.63,3.749,4.244,4.429,4.636,4.78,4.917,5.566,5.696,5.947,6.063,6.211,6.644,6.851,7.097,7.204,7.362,7.781,7.961,8.214,8.313,8.45,8.966,9.245,9.48,9.604,9.797]",0,3,3,3,1,41324,,10,1,2021-01-12_16h48.11.699,Sequence Training,2020.1.3,Linux x86_64,60
"[""4"",""1"",""3"",""2"",""4"",""4"",""1"",""3"",""2"",""4"",""4"",""1"",""3"",""2"",""4"",""1"",""4"",""1"",""3"",""2"",""4"",""4"",""1"",""3"",""2"",""4"",""4"",""1"",""3"",""2""]","[0.845,1.065,1.505,1.59,1.724,2.177,2.591,2.81,2.945,3.092,3.747,4.211,4.66,4.705,4.874,5.446,6.108,6.627,7.009,7.112,7.261,7.757,8.01,8.356,8.49,8.611,9.143,9.427,9.791,9.947]",0,4,4,4,1,41324,,30,1,2021-01-12_16h48.11.699,Sequence Training,2020.1.3,Linux x86_64,60
"[""4"",""1"",""2"",""4"",""4"",""1"",""3"",""2"",""4"",""4"",""1"",""3"",""2"",""4"",""4"",""1"",""3"",""2"",""4"",""4"",""1"",""3"",""2"",""4"",""4"",""1"",""3"",""2"",""4"",""4"",""1"",""3"",""2"",""4"",""4"",""1""]","[0.544,0.754,1.059,1.233,2.052,2.303,2.62,2.708,2.87,3.34,3.582,3.85,3.954,4.108,4.569,4.819,5.12,5.236,5.37,5.87,6.082,6.366,6.486,6.624,7.288,7.503,7.718,7.82,7.969,8.403,8.636,8.885,8.984,9.138,9.751,9.973]",0,5,5,5,1,41324,,0,1,2021-01-12_16h48.11.699,Sequence Training,2020.1.3,Linux x86_64,60
"[""3"",""2"",""4"",""2"",""3"",""1"",""4"",""4"",""2"",""3"",""1"",""4"",""4"",""2"",""3"",""1"",""4"",""4"",""2"",""3"",""1"",""4"",""4"",""2"",""3""]","[0.186,0.299,1.831,2.162,3.03,3.279,3.462,4.431,4.666,4.895,5.187,5.38,5.846,6.163,6.6,6.714,6.967,7.58,7.877,8.213,8.5,8.711,9.347,9.598,9.812]",0,6,6,6,1,42314,,10,1,2021-01-12_16h48.11.699,Sequence Training,2020.1.3,Linux x86_64,60
"[""4"",""1"",""3"",""2"",""4"",""4"",""1"",""3"",""2"",""4"",""4"",""1"",""3"",""2"",""4"",""4"",""1"",""3"",""2"",""4"",""4"",""1"",""3"",""2"",""4"",""4"",""1"",""3"",""2"",""4"",""4"",""1"",""3"",""2"",""4""]","[0.597,0.826,1.163,1.373,1.56,1.975,2.209,2.423,2.581,2.758,3.223,3.424,3.641,3.793,3.914,4.373,4.574,4.776,4.908,5.077,5.712,5.976,6.191,6.339,6.458,7.143,7.393,7.592,7.714,7.828,8.375,8.552,8.773,8.892,9.045]",0,7,7,7,1,41324,,0,1,2021-01-12_16h48.11.699,Sequence Training,2020.1.3,Linux x86_64,60
"[""4"",""2"",""3"",""1"",""4"",""4"",""2"",""3"",""1"",""4"",""4"",""2"",""3"",""1"",""4"",""4"",""2"",""3"",""1"",""4"",""4"",""2"",""3"",""1"",""4"",""4"",""2"",""3"",""1"",""4"",""4"",""2"",""3"",""1"",""4""]","[0.518,1.163,1.35,1.57,1.711,2.268,2.53,2.679,2.865,2.979,3.678,3.896,4.066,4.232,4.413,5.087,5.447,5.519,5.686,5.804,6.498,6.713,6.819,6.998,7.134,7.819,8.083,8.253,8.449,8.562,9.18,9.384,9.595,9.798,9.898]",0,8,8,8,1,42314,,10,1,2021-01-12_16h48.11.699,Sequence Training,2020.1.3,Linux x86_64,60
"[""4"",""1"",""3"",""2"",""4"",""4"",""1"",""3"",""2"",""4"",""4"",""1"",""3"",""2"",""4"",""4"",""1"",""3"",""2"",""4"",""4"",""1"",""2"",""3"",""4"",""4"",""1""]","[0.778,1.482,1.693,1.932,2.047,2.513,2.665,2.869,2.983,3.104,3.532,3.677,3.879,4.012,4.114,4.614,4.769,5.046,5.698,5.86,6.294,6.5,7.015,8.328,8.511,9.379,9.877]",0,9,9,9,1,41324,,0,1,2021-01-12_16h48.11.699,Sequence Training,2020.1.3,Linux x86_64,60
"[""3"",""2"",""4"",""4"",""2"",""3"",""1"",""4"",""4"",""2"",""3"",""1"",""4"",""4"",""2"",""3"",""1"",""4"",""4"",""2"",""3"",""1"",""4"",""4"",""2"",""3"",""1"",""4"",""4"",""2""]","[0.058,0.15,0.318,1.372,1.635,2.084,2.283,2.48,2.902,3.333,3.635,3.88,4.082,4.702,4.915,5.102,5.313,5.453,6.047,7.014,7.265,7.555,7.699,8.142,8.352,8.589,8.817,8.945,9.616,9.867]",0,10,10,10,1,42314,,10,1,2021-01-12_16h48.11.699,Sequence Training,2020.1.3,Linux x86_64,60
"[""4"",""1"",""3"",""2"",""4"",""4"",""1"",""3"",""2"",""4"",""4"",""1"",""3"",""2"",""4"",""4"",""1"",""3"",""2"",""4"",""4"",""1"",""3"",""2"",""4"",""4"",""1""]","[0.599,0.832,1.265,1.378,1.51,1.984,2.232,2.531,2.643,2.779,3.617,3.864,4.295,4.477,5.01,5.483,5.729,6.128,6.349,6.501,6.994,7.261,7.78,8.128,8.378,9.481,9.833]",0,11,11,11,1,41324,,0,1,2021-01-12_16h48.11.699,Sequence Training,2020.1.3,Linux x86_64,60
"[""3"",""4"",""2"",""3"",""1"",""4"",""4"",""2"",""3"",""1"",""4"",""4"",""2"",""3"",""1"",""4"",""4"",""2"",""3"",""1"",""4"",""4"",""2"",""3"",""1"",""4"",""4""]","[0.18,1.115,2.199,2.563,2.855,3.097,3.75,3.976,4.205,4.447,4.631,5.137,5.39,5.664,5.901,6.065,6.617,7.014,7.218,7.448,7.599,8.197,8.548,8.785,9.049,9.183,9.835]",0,12,12,12,1,42314,,10,1,2021-01-12_16h48.11.699,Sequence Training,2020.1.3,Linux x86_64,60
"[""4"",""1"",""3"",""2"",""4"",""4"",""1"",""3"",""2"",""4"",""4"",""1"",""3"",""2"",""4"",""4"",""1"",""3"",""2"",""4"",""4"",""1"",""3"",""2"",""4""]","[3.947,4.069,4.527,4.792,4.953,5.325,5.489,5.737,5.872,6.026,6.442,6.622,6.824,6.975,7.102,7.472,7.672,7.886,8.022,8.154,8.635,8.855,9.596,9.703,9.825]",0,13,13,13,1,41324,,0,1,2021-01-12_16h48.11.699,Sequence Training,2020.1.3,Linux x86_64,60
"[""4"",""2"",""3"",""1"",""4"",""2"",""4"",""2"",""3"",""1"",""4"",""4"",""2"",""3"",""1"",""4"",""4"",""2"",""3"",""1"",""4"",""4"",""2"",""3"",""1"",""4"",""4"",""2"",""3"",""1"",""4""]","[0.889,1.249,1.465,1.644,1.724,2.364,3.89,4.216,4.607,4.851,5.066,5.437,5.682,5.863,6.051,6.136,6.59,6.783,6.939,7.119,7.203,7.809,8.021,8.236,8.415,8.532,9.04,9.268,9.656,9.836,9.964]",0,14,14,14,1,42314,,10,1,2021-01-12_16h48.11.699,Sequence Training,2020.1.3,Linux x86_64,60
"[""4"",""1"",""3"",""2"",""4"",""4"",""1"",""3"",""2"",""4"",""4"",""1"",""3"",""2"",""4"",""4"",""1"",""3"",""2"",""4"",""4"",""1"",""3"",""2"",""4"",""4"",""1""]","[1.165,1.643,1.862,2.042,2.175,2.557,2.741,2.966,3.112,3.244,3.576,3.74,4.012,4.178,4.309,4.676,4.976,6.378,6.593,6.778,7.513,8.061,8.593,8.774,8.962,9.641,9.875]",0,15,15,15,1,41324,,10,1,2021-01-12_16h48.11.699,Sequence Training,2020.1.3,Linux x86_64,60
"[""4"",""1"",""3"",""2"",""4"",""4"",""1"",""3"",""2"",""4"",""4"",""1"",""3"",""2"",""4"",""4"",""1"",""3"",""2"",""4"",""4"",""1"",""3"",""2"",""4"",""4"",""1"",""3"",""2"",""4""]","[0.574,0.772,1.159,1.374,1.508,1.957,2.175,2.526,2.677,2.774,3.373,3.611,4.43,4.492,4.595,5.174,5.428,5.76,5.96,6.014,6.892,7.145,7.723,7.856,7.939,8.557,8.799,9.305,9.442,9.528]",0,16,16,16,1,41324,,10,1,2021-01-12_16h48.11.699,Sequence Training,2020.1.3,Linux x86_64,60
"[""4"",""1"",""3"",""2"",""4"",""4"",""1"",""3"",""2"",""4"",""4"",""1"",""4"",""3"",""2"",""4"",""4"",""1"",""3"",""2"",""4"",""4"",""1"",""3"",""2"",""4"",""4"",""1"",""3""]","[0.776,0.958,1.223,1.39,1.49,1.926,2.138,2.428,2.578,2.658,3.158,3.558,3.885,4.602,4.739,4.795,5.408,5.604,5.961,6.092,6.157,6.759,7.592,8.094,8.29,8.357,9.008,9.493,9.971]",0,17,17,17,1,41324,,10,1,2021-01-12_16h48.11.699,Sequence Training,2020.1.3,Linux x86_64,60
"[""4"",""1"",""3"",""2"",""4"",""4"",""1"",""3"",""4"",""4"",""1"",""3"",""2"",""4"",""4"",""1"",""3"",""2"",""4"",""4"",""1"",""3"",""2"",""4"",""4"",""1"",""3"",""2"",""4"",""4"",""1""]","[0.535,0.757,1.144,1.294,1.374,1.825,2.057,2.356,2.557,3.525,3.777,4.136,4.271,4.357,4.986,5.226,5.658,5.753,5.836,6.424,6.638,6.958,7.086,7.187,7.707,7.972,8.472,8.603,8.675,9.527,9.804]",0,18,18,18,1,41324,,10,1,2021-01-12_16h48.11.699,Sequence Training,2020.1.3,Linux x86_64,60
"[""4"",""1"",""3"",""2"",""4"",""4"",""1"",""3"",""2"",""4"",""4"",""1"",""3"",""2"",""4"",""4"",""1"",""3"",""2"",""4"",""4"",""1"",""3"",""2"",""4"",""4""]","[3.688,3.893,4.106,4.269,4.404,4.79,5.002,5.357,5.503,5.573,6.202,6.424,6.744,6.852,6.952,7.452,7.637,7.921,8.085,8.169,8.636,8.869,9.262,9.372,9.468,9.907]",0,19,19,19,1,41324,,10,1,2021-01-12_16h48.11.699,Sequence Training,2020.1.3,Linux x86_64,60
"[""4"",""1"",""3"",""2"",""4"",""1"",""3"",""2"",""4"",""4"",""1"",""3"",""2"",""4"",""1"",""4"",""1"",""3"",""2"",""4"",""4"",""1"",""3"",""2"",""4"",""4""]","[1.218,1.427,1.69,1.845,2.441,2.632,2.909,3.028,3.129,3.727,3.895,4.227,4.374,4.479,5.125,5.909,6.976,7.378,7.525,7.581,8.077,8.265,8.708,8.827,8.895,9.574]",0,20,20,20,1,41324,,10,1,2021-01-12_16h48.11.699,Sequence Training,2020.1.3,Linux x86_64,60
"[""4"",""1"",""3"",""2"",""4"",""4"",""1"",""3"",""2"",""4"",""4"",""1"",""3"",""2"",""4"",""4"",""1"",""3"",""2"",""4"",""4"",""1"",""3"",""2"",""4"",""4"",""1""]","[2.192,2.359,2.809,2.926,3.091,3.558,3.894,4.391,4.574,4.681,5.362,5.583,5.909,6.04,6.145,6.628,6.79,7.125,7.224,7.312,7.792,8.008,8.324,8.457,8.541,9.094,9.642]",0,21,21,21,1,41324,,0,1,2021-01-12_16h48.11.699,Sequence Training,2020.1.3,Linux x86_64,60
