Key_Response.keys,Key_Response.rt,trials.thisRepN,trials.thisTrialN,trials.thisN,trials.thisIndex,trials.ran,Sequences,Repeat,BreakTime,session,date,expName,psychopyVersion,OS,frameRate
"[""4"",""1"",""3"",""2"",""4"",""4"",""1"",""3"",""2"",""4"",""4"",""1"",""3"",""2"",""4"",""4"",""1"",""3"",""2"",""4"",""4"",""1"",""3"",""2""]","[1.2,1.55,2.409,2.477,2.885,3.94,4.441,4.898,5.235,5.568,5.867,6.285,6.565,6.665,7.01,7.373,7.718,8.056,8.138,8.51,8.907,9.301,9.65,9.722]",0,0,0,0,1,41324,,10,1,2021-01-12_16h49.04.293,Sequence Training,2020.1.3,Win32,60
"[""4"",""1"",""3"",""2"",""4"",""4"",""1"",""3"",""2"",""4"",""4"",""2"",""4"",""4"",""1"",""3"",""2"",""4"",""4"",""1"",""3"",""2"",""4"",""4"",""1"",""3"",""2"",""4""]","[0.89,1.363,1.758,1.823,2.165,2.508,2.894,3.204,3.291,3.638,4.005,4.813,5.148,5.466,5.806,6.099,6.187,6.49,6.8,7.184,7.517,7.619,7.951,8.349,8.989,9.366,9.452,9.783]",0,1,1,1,1,41324,,10,1,2021-01-12_16h49.04.293,Sequence Training,2020.1.3,Win32,60
"[""4"",""1"",""3"",""4"",""4"",""1"",""3"",""2"",""4"",""4"",""1"",""3"",""2"",""4"",""4"",""1"",""3"",""2"",""4"",""4"",""1"",""3"",""2"",""4"",""4"",""1"",""3"",""2"",""4"",""4"",""1"",""3"",""2"",""4"",""4"",""1"",""3"",""2""]","[0.658,1.011,1.339,1.643,1.913,2.194,2.447,2.528,2.759,3.029,3.311,3.538,3.643,3.877,4.17,4.46,4.705,4.821,5.074,5.339,5.905,6.261,6.355,6.621,6.923,7.224,7.49,7.588,7.824,8.121,8.404,8.655,8.754,8.972,9.27,9.539,9.79,9.904]",0,2,2,2,1,41324,,10,1,2021-01-12_16h49.04.293,Sequence Training,2020.1.3,Win32,60
"[""4"",""1"",""3"",""2"",""4"",""4"",""1"",""3"",""2"",""4"",""4"",""1"",""3"",""2"",""4"",""4"",""1"",""3"",""2"",""4"",""4"",""1"",""3"",""2"",""4"",""4"",""1"",""3"",""4"",""4"",""1"",""3"",""2"",""4"",""4"",""1"",""3"",""2"",""4""]","[0.634,0.9,1.183,1.286,1.524,1.757,2.01,2.217,2.3,2.516,2.76,3,3.217,3.317,3.515,3.769,4.055,4.235,4.322,4.534,4.822,5.331,5.739,5.849,6.115,6.41,6.701,7.024,7.308,7.687,8.05,8.444,8.532,8.818,9.154,9.45,9.681,9.765,9.998]",0,3,3,3,1,41324,,10,1,2021-01-12_16h49.04.293,Sequence Training,2020.1.3,Win32,60
"[""4"",""1"",""3"",""2"",""4"",""4"",""1"",""3"",""2"",""4"",""4"",""1"",""3"",""2"",""4"",""4"",""1"",""3"",""2"",""4"",""4"",""1"",""3"",""2"",""4"",""4"",""1"",""3"",""2"",""4"",""4"",""1"",""3"",""2"",""4"",""4"",""1""]","[0.693,0.93,1.195,1.274,1.511,1.742,2.126,2.394,2.464,2.7,2.98,3.331,3.63,3.701,4.019,4.614,4.957,5.215,5.284,5.512,5.822,6.182,6.45,6.532,6.778,7.098,7.422,7.678,7.747,8.014,8.295,8.629,8.918,8.995,9.274,9.561,9.907]",0,4,4,4,1,41324,,30,1,2021-01-12_16h49.04.293,Sequence Training,2020.1.3,Win32,60
"[""4"",""1"",""3"",""2"",""4"",""4"",""1"",""3"",""2"",""4"",""4"",""1"",""3"",""2"",""4"",""4"",""1"",""3"",""2"",""4"",""4"",""1"",""3"",""2"",""4"",""4"",""1"",""3"",""2"",""4"",""4"",""1"",""3"",""2"",""4"",""4"",""1"",""3"",""2"",""4"",""4"",""1""]","[0.591,0.873,1.089,1.156,1.376,1.615,1.878,2.111,2.179,2.394,2.674,2.975,3.221,3.293,3.527,3.809,4.092,4.343,4.423,4.653,4.926,5.196,5.459,5.553,5.783,6.044,6.298,6.559,6.644,6.89,7.193,7.511,7.743,7.825,8.052,8.33,8.63,8.891,8.975,9.208,9.477,9.798]",0,5,5,5,1,41324,,0,1,2021-01-12_16h49.04.293,Sequence Training,2020.1.3,Win32,60
"[""2"",""4"",""4"",""2"",""3"",""1"",""4"",""4"",""2"",""3"",""1"",""4"",""4"",""2"",""3"",""1"",""4"",""4"",""2"",""3"",""1"",""4"",""4"",""2""]","[0.101,0.365,1.408,2.35,2.656,3.6,3.913,4.298,4.865,4.964,5.214,5.434,5.763,6.082,6.572,6.863,7.137,7.431,7.739,8.03,8.33,8.696,8.991,9.946]",0,6,6,6,1,42314,,10,1,2021-01-12_16h49.04.293,Sequence Training,2020.1.3,Win32,60
"[""4"",""1"",""3"",""2"",""4"",""4"",""1"",""3"",""2"",""4"",""4"",""1"",""3"",""2"",""4"",""4"",""1"",""3"",""2"",""4"",""4"",""1"",""3"",""2"",""4"",""4"",""1"",""3"",""2"",""4"",""4"",""1"",""3"",""2"",""4"",""4"",""1"",""3"",""2"",""4""]","[0.721,0.989,1.229,1.289,1.52,1.781,2.064,2.301,2.38,2.594,2.859,3.161,3.404,3.478,3.704,3.998,4.373,4.669,4.738,4.988,5.29,5.587,5.845,5.967,6.239,6.565,6.86,7.102,7.172,7.404,7.696,7.98,8.225,8.303,8.541,8.826,9.167,9.425,9.503,9.754]",0,7,7,7,1,41324,,0,1,2021-01-12_16h49.04.293,Sequence Training,2020.1.3,Win32,60
"[""4"",""2"",""3"",""1"",""4"",""4"",""2"",""3"",""1"",""4"",""4"",""2"",""3"",""1"",""4"",""4"",""2"",""3"",""1"",""4"",""4"",""2"",""3""]","[0.059,1.466,1.564,2.365,2.663,3.032,3.498,3.586,3.88,4.146,4.579,5.113,5.212,5.479,5.748,6.062,6.48,6.562,6.863,7.145,7.511,9.613,9.839]",0,8,8,8,1,42314,,10,1,2021-01-12_16h49.04.293,Sequence Training,2020.1.3,Win32,60
"[""4"",""1"",""3"",""2"",""4"",""4"",""1"",""3"",""2"",""4"",""4"",""1"",""3"",""4"",""1"",""3"",""2"",""4"",""4"",""1"",""3"",""2"",""4"",""1"",""3"",""2"",""4"",""4"",""1"",""3"",""2""]","[1.039,1.293,1.585,1.686,1.951,2.233,2.516,2.754,2.832,3.05,3.319,3.601,3.866,4.463,4.772,5.027,5.09,5.329,5.62,5.999,6.285,6.369,6.666,7.665,8.016,8.082,8.349,8.692,9.358,9.672,9.74]",0,9,9,9,1,41324,,0,1,2021-01-12_16h49.04.293,Sequence Training,2020.1.3,Win32,60
"[""4"",""2"",""3"",""1"",""4"",""4"",""2"",""3"",""1"",""4"",""4"",""2"",""3"",""1"",""4"",""4"",""2"",""3"",""1"",""4"",""4"",""2"",""3"",""1"",""4"",""4"",""2"",""3"",""1"",""4""]","[1.07,1.33,1.433,1.737,2.037,2.447,2.896,2.987,3.261,3.579,3.946,4.47,4.562,4.822,5.092,5.387,6.016,6.09,6.366,6.653,6.968,7.517,7.601,7.867,8.123,8.418,8.972,9.069,9.318,9.583]",0,10,10,10,1,42314,,10,1,2021-01-12_16h49.04.293,Sequence Training,2020.1.3,Win32,60
"[""4"",""1"",""3"",""2"",""4"",""4"",""1"",""3"",""2"",""4"",""4"",""1"",""3"",""2"",""4"",""4"",""1"",""3"",""2"",""4"",""4"",""1"",""3"",""2"",""4"",""4"",""1"",""3"",""2"",""4"",""4"",""1"",""3"",""2""]","[0.882,1.13,1.366,1.454,1.708,1.981,2.337,2.597,2.664,2.932,3.257,3.563,3.832,3.915,4.167,4.442,4.741,4.978,5.075,5.319,5.64,5.948,6.198,6.279,6.564,6.881,7.327,7.706,7.808,8.141,8.529,9.317,9.626,9.778]",0,11,11,11,1,41324,,0,1,2021-01-12_16h49.04.293,Sequence Training,2020.1.3,Win32,60
"[""4"",""2"",""3"",""1"",""4"",""4"",""2"",""3"",""1"",""4"",""4"",""2"",""3"",""1"",""4"",""4"",""2"",""3"",""1"",""4"",""4"",""2"",""3"",""1"",""4"",""4"",""2"",""3"",""1"",""4"",""4"",""2""]","[0.027,0.992,1.115,1.515,1.883,2.291,2.838,2.937,3.209,3.474,3.829,4.23,4.314,4.584,4.849,5.143,5.627,5.725,5.977,6.261,6.575,7.075,7.154,7.423,7.662,7.966,8.496,8.593,8.832,9.113,9.445,9.967]",0,12,12,12,1,42314,,10,1,2021-01-12_16h49.04.293,Sequence Training,2020.1.3,Win32,60
"[""4"",""1"",""3"",""2"",""4"",""4"",""1"",""3"",""2"",""4"",""4"",""2"",""3"",""2"",""4"",""4"",""1"",""3"",""2"",""4"",""4"",""1"",""3"",""2"",""4""]","[1.105,1.754,2.118,2.425,2.735,3.43,4.053,4.376,4.623,4.909,5.196,5.568,6.522,6.854,7.11,7.355,7.635,7.909,8.026,8.568,8.889,9.273,9.561,9.639,9.926]",0,13,13,13,1,41324,,0,1,2021-01-12_16h49.04.293,Sequence Training,2020.1.3,Win32,60
"[""4"",""2"",""3"",""1"",""4"",""4"",""2"",""3"",""1"",""4"",""4"",""2"",""3"",""1"",""4"",""4"",""2"",""3"",""1"",""4"",""4"",""2"",""3"",""1"",""4"",""4"",""2"",""3"",""1"",""4""]","[0.879,1.156,1.254,1.547,1.89,2.534,2.886,2.978,3.297,3.612,3.936,4.572,4.649,4.959,5.239,5.505,6.059,6.138,6.421,6.726,7.004,7.717,7.811,8.099,8.387,8.744,9.319,9.392,9.666,9.98]",0,14,14,14,1,42314,,10,1,2021-01-12_16h49.04.293,Sequence Training,2020.1.3,Win32,60
"[""4"",""1"",""3"",""2"",""4"",""4"",""1"",""3"",""2"",""4"",""4"",""1"",""3"",""2"",""4"",""4"",""1"",""3"",""2"",""4"",""4"",""1"",""3"",""2"",""4""]","[0.51,0.913,1.173,1.241,1.528,1.85,2.278,2.573,3.046,4.006,4.647,5.027,5.959,6.004,6.36,6.718,7.012,7.277,7.356,7.643,8.039,8.393,8.911,9.01,9.455]",0,15,15,15,1,41324,,10,1,2021-01-12_16h49.04.293,Sequence Training,2020.1.3,Win32,60
"[""4"",""1"",""3"",""2"",""4"",""4"",""1"",""3"",""2"",""4"",""4"",""1"",""3"",""2"",""4"",""4"",""1"",""3"",""2"",""4"",""4"",""1"",""3"",""2"",""4"",""4"",""1"",""3"",""2"",""4"",""4""]","[0.867,1.244,1.538,1.622,1.889,2.222,2.556,2.841,2.905,3.212,3.571,3.955,4.249,4.325,4.606,4.972,5.345,5.654,5.738,6.054,6.42,7.153,7.47,7.555,7.887,8.216,8.616,8.915,8.989,9.311,9.688]",0,16,16,16,1,41324,,10,1,2021-01-12_16h49.04.293,Sequence Training,2020.1.3,Win32,60
"[""4"",""1"",""3"",""2"",""4"",""4"",""1"",""3"",""2"",""4"",""4"",""1"",""3"",""2"",""4"",""4"",""1"",""3"",""2"",""4"",""4"",""1"",""3"",""2"",""4"",""4""]","[3.147,3.489,3.889,3.956,4.253,4.57,4.908,5.24,5.368,5.607,5.925,6.435,6.719,6.803,7.123,7.434,7.741,7.983,8.057,8.323,8.617,8.9,9.168,9.238,9.503,9.804]",0,17,17,17,1,41324,,10,1,2021-01-12_16h49.04.293,Sequence Training,2020.1.3,Win32,60
"[""4"",""1"",""3"",""2"",""2"",""4"",""4"",""1"",""3"",""2"",""4"",""4"",""1"",""3"",""2"",""4"",""4"",""1"",""3"",""2"",""4"",""4"",""1"",""3"",""2""]","[0.85,1.197,1.448,1.531,2.957,3.075,3.401,3.767,4.052,4.133,4.466,4.862,6.076,6.12,6.218,6.577,6.938,7.469,7.799,7.866,8.166,8.466,8.796,9.616,9.711]",0,18,18,18,1,41324,,10,1,2021-01-12_16h49.04.293,Sequence Training,2020.1.3,Win32,60
"[""4"",""1"",""3"",""2"",""4"",""4"",""1"",""3"",""2"",""4"",""4"",""1"",""3"",""2"",""4"",""4"",""1"",""3"",""2"",""4"",""1"",""2"",""3"",""2"",""4"",""4""]","[1.081,1.337,1.554,1.629,1.869,2.119,2.368,2.59,2.668,2.88,3.131,3.379,3.596,3.679,3.881,4.129,4.396,4.63,4.722,4.944,6.627,6.655,6.799,6.87,7.137,7.417]",0,19,19,19,1,41324,,10,1,2021-01-12_16h49.04.293,Sequence Training,2020.1.3,Win32,60
"[""4"",""1"",""3"",""2"",""4"",""4"",""1"",""3"",""2"",""4"",""4"",""1"",""3"",""2"",""4"",""4"",""1"",""3"",""2"",""4"",""4"",""1"",""3"",""2"",""4"",""4"",""1"",""3"",""2"",""4"",""4"",""1"",""3"",""2"",""4"",""4"",""1"",""3"",""2""]","[0.91,1.166,1.383,1.465,1.712,1.968,2.248,2.482,2.596,2.816,3.089,3.365,3.599,3.666,3.898,4.166,4.432,4.666,4.749,4.982,5.265,5.596,5.844,5.921,6.198,6.465,6.799,7.065,7.131,7.431,7.753,8.125,8.407,8.484,8.765,9.141,9.53,9.83,9.943]",0,20,20,20,1,41324,,10,1,2021-01-12_16h49.04.293,Sequence Training,2020.1.3,Win32,60
"[""4"",""1"",""3"",""2"",""4"",""4"",""1"",""3"",""2"",""4"",""4"",""1"",""3"",""2"",""4"",""4"",""1"",""3"",""2"",""4"",""4"",""1"",""3"",""2"",""4"",""4"",""1"",""3"",""2"",""1"",""3"",""2"",""4"",""4"",""1"",""3"",""2"",""4""]","[0.495,0.743,0.972,1.037,1.28,1.52,1.787,2.021,2.087,2.354,2.622,2.903,3.136,3.211,3.453,3.72,3.989,4.236,4.32,4.567,4.835,5.115,5.365,5.448,5.698,5.985,6.265,6.518,6.615,7.729,7.856,7.947,8.221,8.487,9.03,9.309,9.385,9.664]",0,21,21,21,1,41324,,0,1,2021-01-12_16h49.04.293,Sequence Training,2020.1.3,Win32,60
