Key_Response.keys,Key_Response.rt,trials.thisRepN,trials.thisTrialN,trials.thisN,trials.thisIndex,trials.ran,Sequences,Repeat,BreakTime,session,date,expName,psychopyVersion,OS,frameRate
"[""4"",""1"",""3"",""2"",""4"",""4"",""1"",""3"",""2"",""4"",""4"",""1"",""3"",""2"",""4"",""4"",""1"",""3"",""2"",""4"",""4"",""1""]","[0.902,1.275,1.644,1.926,2.123,3.823,4.256,4.915,5.124,5.343,5.653,5.956,6.382,6.589,6.815,7.198,7.452,8.059,8.514,8.939,9.325,9.649]",0,0,0,0,1,41324,,10,1,2020-10-06_09h16.52.292,Sequence Training,2020.1.3,Win32,60
"[""4"",""1"",""3"",""2"",""4"",""4"",""1"",""3"",""2"",""4"",""4"",""1"",""3"",""2"",""4"",""4"",""1"",""3"",""2"",""4"",""4"",""1"",""3"",""2"",""4"",""4"",""1"",""3"",""2"",""4"",""4"",""1""]","[0.875,1.106,1.468,1.684,1.89,2.145,2.901,3.193,3.4,3.63,3.926,4.255,4.575,4.8,5.053,5.333,5.65,5.909,6.143,6.378,6.629,6.972,7.367,7.572,7.838,8.096,8.424,8.679,8.903,9.133,9.583,9.891]",0,1,1,1,1,41324,,10,1,2020-10-06_09h16.52.292,Sequence Training,2020.1.3,Win32,60
"[""4"",""1"",""3"",""2"",""4"",""4"",""1"",""3"",""2"",""4"",""4"",""1"",""3"",""2"",""4"",""4"",""1"",""3"",""2"",""4"",""4"",""1"",""3"",""2"",""4"",""4"",""1"",""3"",""2"",""4"",""4"",""1"",""3"",""2"",""4"",""4""]","[0.717,0.943,1.225,1.45,1.654,1.901,2.1,2.433,2.642,2.866,3.131,3.335,3.621,3.819,4.05,4.414,4.797,5.371,5.547,5.805,6.082,6.256,6.538,6.733,6.99,7.247,7.432,7.68,7.887,8.156,8.43,8.644,9.022,9.241,9.487,9.842]",0,2,2,2,1,41324,,10,1,2020-10-06_09h16.52.292,Sequence Training,2020.1.3,Win32,60
"[""4"",""1"",""3"",""2"",""4"",""4"",""1"",""3"",""2"",""4"",""4"",""1"",""3"",""2"",""4"",""4"",""1"",""3"",""2"",""4"",""4"",""1"",""3"",""2"",""4"",""4"",""1"",""3"",""2"",""4"",""4"",""1"",""3"",""2"",""4"",""4"",""1""]","[0.471,0.695,1.659,1.978,2.206,2.443,2.657,2.935,3.158,3.418,3.645,3.841,4.079,4.317,4.567,4.77,4.944,5.208,5.404,5.61,5.836,5.992,6.402,6.607,6.831,7.269,7.477,7.76,7.988,8.28,8.512,8.709,8.967,9.2,9.46,9.817,9.992]",0,3,3,3,1,41324,,10,1,2020-10-06_09h16.52.292,Sequence Training,2020.1.3,Win32,60
"[""4"",""1"",""3"",""2"",""4"",""4"",""1"",""3"",""2"",""4"",""4"",""1"",""3"",""2"",""4"",""4"",""1"",""3"",""2"",""4"",""4"",""1"",""3"",""2"",""4"",""4"",""1"",""3"",""2"",""4"",""4"",""1"",""3"",""2"",""4"",""4"",""1"",""3"",""2""]","[0.426,0.602,0.853,1.044,1.263,1.472,1.627,1.892,2.069,2.288,2.63,2.801,3.017,3.284,3.518,3.842,3.988,4.284,4.481,4.78,5.184,5.35,5.687,5.897,6.143,6.45,6.6,7.034,7.352,7.62,7.893,8.05,8.331,8.508,8.85,9.119,9.288,9.57,9.772]",0,4,4,4,1,41324,,30,1,2020-10-06_09h16.52.292,Sequence Training,2020.1.3,Win32,60
"[""4"",""1"",""3"",""2"",""4"",""4"",""1"",""3"",""2"",""4"",""4"",""1"",""3"",""2"",""4"",""4"",""1"",""3"",""2"",""4"",""4"",""1"",""3"",""2"",""4"",""4"",""1"",""3"",""2"",""4"",""4"",""1"",""3"",""2"",""4"",""4"",""1"",""3"",""2""]","[0.937,1.113,1.334,1.505,1.661,1.834,1.984,2.271,2.43,2.613,2.795,2.95,3.319,3.534,3.82,4.03,4.217,4.595,4.772,4.967,5.155,5.401,5.807,6.002,6.253,6.642,6.851,7.367,7.606,7.825,8.017,8.185,8.486,8.796,9.06,9.278,9.5,9.812,10]",0,5,5,5,1,41324,,0,1,2020-10-06_09h16.52.292,Sequence Training,2020.1.3,Win32,60
"[""4"",""2"",""3"",""1"",""4"",""4"",""3"",""2"",""3"",""1"",""4"",""4"",""1"",""2"",""3"",""1"",""4"",""4"",""2"",""3"",""1"",""4"",""4"",""2"",""3"",""1"",""4""]","[0.85,1.247,1.473,1.651,1.851,2.038,2.362,3.346,3.674,3.911,4.15,4.34,4.526,5.517,5.77,6.021,6.213,6.395,7.251,7.571,7.818,8.183,8.401,8.751,9.069,9.426,9.812]",0,6,6,6,1,42314,,10,1,2020-10-06_09h16.52.292,Sequence Training,2020.1.3,Win32,60
"[""4"",""1"",""3"",""2"",""4"",""4"",""1"",""3"",""2"",""4"",""4"",""1"",""3"",""2"",""4"",""4"",""1"",""3"",""2"",""4"",""4"",""1"",""3"",""2"",""4"",""4"",""1"",""3"",""2"",""4"",""4"",""1"",""3"",""2"",""4""]","[0.55,0.734,0.969,1.155,1.379,1.567,1.752,2.204,2.386,2.66,2.856,3.052,3.434,3.659,3.945,4.173,4.369,4.975,5.167,5.401,5.577,5.745,6.017,6.41,6.676,6.9,7.277,7.824,7.998,8.284,8.485,8.684,9.046,9.314,9.707]",0,7,7,7,1,41324,,0,1,2020-10-06_09h16.52.292,Sequence Training,2020.1.3,Win32,60
"[""4"",""2"",""3"",""1"",""4"",""4"",""2"",""3"",""1"",""4"",""4"",""2"",""3"",""1"",""4"",""4"",""2"",""3"",""1"",""4"",""4"",""2"",""3"",""4"",""1"",""4"",""2"",""3"",""1"",""4""]","[0.122,1.068,1.307,1.668,1.902,2.097,2.484,2.733,3.086,3.278,3.993,4.184,4.5,4.71,4.927,5.305,5.875,6.191,6.408,6.642,6.833,7.119,7.389,7.635,8.127,8.724,8.96,9.385,9.613,9.91]",0,8,8,8,1,42314,,10,1,2020-10-06_09h16.52.292,Sequence Training,2020.1.3,Win32,60
"[""4"",""2"",""3"",""2"",""4"",""4"",""1"",""3"",""2"",""4"",""4"",""1"",""3"",""2"",""4"",""4"",""1"",""3"",""2"",""4"",""4"",""1"",""3"",""2"",""4"",""4"",""1"",""3"",""2""]","[0.82,1.006,2.027,2.229,2.451,2.633,2.802,3.616,3.802,4.056,4.25,4.553,5.406,5.588,5.912,6.117,6.395,6.887,7.056,7.293,7.48,7.653,8.034,8.267,8.505,8.76,8.979,9.527,9.817]",0,9,9,9,1,41324,,0,1,2020-10-06_09h16.52.292,Sequence Training,2020.1.3,Win32,60
"[""4"",""2"",""3"",""1"",""4"",""4"",""2"",""3"",""1"",""4"",""4"",""2"",""3"",""1"",""4"",""4"",""2"",""3"",""1"",""4"",""4"",""2"",""3"",""1"",""4"",""4"",""2"",""3"",""1"",""4"",""4"",""2""]","[0.139,0.989,1.275,1.502,1.712,2.158,2.587,2.919,3.135,3.325,3.53,3.822,4.118,4.323,4.61,4.861,5.118,5.381,5.623,5.851,6.603,6.995,7.25,7.519,7.751,8.161,8.412,8.726,8.95,9.159,9.378,9.829]",0,10,10,10,1,42314,,10,1,2020-10-06_09h16.52.292,Sequence Training,2020.1.3,Win32,60
"[""4"",""1"",""3"",""2"",""4"",""4"",""1"",""3"",""2"",""4"",""4"",""1"",""3"",""2"",""4"",""4"",""1"",""3"",""2"",""4"",""4"",""1"",""3"",""2"",""4"",""4"",""1"",""3"",""2"",""4"",""4"",""1"",""3"",""2"",""4"",""4""]","[0.468,0.735,1.05,1.241,1.501,1.692,1.967,2.55,2.767,3.069,3.279,3.52,3.839,4.027,4.318,4.517,4.673,5.042,5.225,5.48,5.745,6.041,6.31,6.583,6.806,7.043,7.303,7.791,7.955,8.302,8.525,8.722,9.2,9.395,9.617,9.828]",0,11,11,11,1,41324,,0,1,2020-10-06_09h16.52.292,Sequence Training,2020.1.3,Win32,60
"[""4"",""2"",""3"",""1"",""4"",""4"",""2"",""3"",""1"",""4"",""4"",""2"",""3"",""1"",""4"",""4"",""2"",""3"",""1"",""4"",""4"",""2"",""3"",""1"",""4"",""4"",""2"",""3"",""1"",""4""]","[0.867,1.02,1.271,1.53,1.712,1.95,2.214,2.523,2.97,3.175,3.439,3.864,4.141,4.429,4.638,4.925,5.267,5.54,5.773,6.01,6.479,6.671,7.033,7.238,7.579,7.901,8.071,8.472,8.659,8.805]",0,12,12,12,1,42314,,10,1,2020-10-06_09h16.52.292,Sequence Training,2020.1.3,Win32,60
"[""4"",""1"",""3"",""2"",""4"",""4"",""1"",""3"",""2"",""4"",""4"",""1"",""3"",""2"",""4"",""4"",""1"",""3"",""2"",""4"",""4"",""1"",""3"",""2"",""4"",""4"",""1"",""3"",""2"",""4"",""4"",""1"",""3"",""2"",""4"",""4"",""1""]","[0.458,0.69,0.94,1.136,1.383,1.571,1.74,2.067,2.25,2.473,2.66,2.81,3.352,3.612,3.833,4.124,4.287,4.692,4.879,5.125,5.303,5.462,5.75,5.959,6.32,6.621,6.83,7.354,7.567,7.801,8,8.167,8.672,8.859,9.155,9.493,9.725]",0,13,13,13,1,41324,,0,1,2020-10-06_09h16.52.292,Sequence Training,2020.1.3,Win32,60
"[""2"",""2"",""4"",""2"",""3"",""1"",""4"",""4"",""2"",""3"",""4"",""1"",""4"",""2"",""3"",""1"",""4"",""4"",""2"",""3"",""1"",""4"",""4"",""2"",""3"",""1"",""4"",""4"",""2"",""3"",""1"",""4"",""4""]","[0.184,1.008,1.684,1.909,2.184,2.402,2.59,2.767,3.068,3.305,3.551,3.984,4.658,4.945,5.173,5.369,5.638,5.825,6.117,6.339,6.676,6.886,7.317,7.524,7.788,8.195,8.403,8.583,8.901,9.151,9.534,9.717,10]",0,14,14,14,1,42314,,10,1,2020-10-06_09h16.52.292,Sequence Training,2020.1.3,Win32,60
"[""4"",""1"",""3"",""2"",""4"",""4"",""1"",""3"",""2"",""4"",""4"",""1"",""3"",""2"",""4"",""4"",""1"",""3"",""2"",""4"",""4"",""1"",""3"",""2"",""4"",""4"",""1"",""3"",""2"",""4"",""4"",""1"",""3"",""2"",""4""]","[0.453,0.644,0.923,1.134,1.377,1.591,1.793,2.339,2.539,2.862,3.095,3.284,3.61,3.81,4.08,4.27,4.458,4.736,4.96,5.237,5.434,5.717,6.29,6.5,6.809,7.034,7.333,7.894,8.095,8.413,8.65,8.934,9.367,9.561,9.83]",0,15,15,15,1,41324,,10,1,2020-10-06_09h16.52.292,Sequence Training,2020.1.3,Win32,60
"[""4"",""1"",""3"",""2"",""4"",""4"",""1"",""3"",""2"",""4"",""4"",""1"",""3"",""2"",""4"",""4"",""1"",""3"",""2"",""4"",""4"",""1"",""3"",""2"",""4"",""4"",""1"",""3"",""2"",""4"",""4"",""1"",""3"",""2"",""4"",""4""]","[0.426,0.639,0.913,1.127,1.368,1.567,1.734,2.025,2.227,2.485,2.672,2.822,3.184,3.389,3.62,3.862,4.03,4.445,4.65,4.937,5.353,5.589,5.951,6.128,6.593,6.971,7.244,7.517,7.867,8.193,8.398,8.653,9.068,9.413,9.659,9.884]",0,16,16,16,1,41324,,10,1,2020-10-06_09h16.52.292,Sequence Training,2020.1.3,Win32,60
"[""4"",""1"",""3"",""2"",""4"",""4"",""1"",""3"",""2"",""4"",""4"",""1"",""3"",""2"",""4"",""4"",""1"",""3"",""2"",""4"",""4"",""1"",""3"",""2"",""4"",""4"",""1"",""3"",""2"",""4"",""4"",""1"",""3"",""2"",""4"",""4"",""1""]","[0.422,0.612,0.85,1.036,1.25,1.441,1.617,1.852,2.021,2.28,2.458,2.622,2.986,3.428,3.667,4.05,4.235,4.5,4.691,4.955,5.517,5.708,6.062,6.244,6.513,6.71,6.867,7.253,7.467,7.745,7.955,8.167,8.863,9.067,9.304,9.76,9.993]",0,17,17,17,1,41324,,10,1,2020-10-06_09h16.52.292,Sequence Training,2020.1.3,Win32,60
"[""4"",""1"",""3"",""2"",""4"",""4"",""1"",""3"",""2"",""4"",""4"",""1"",""3"",""2"",""4"",""4"",""1"",""3"",""2"",""4"",""4"",""1"",""3"",""2"",""4"",""4"",""1"",""3"",""2"",""4"",""4"",""1"",""3"",""2"",""4"",""4"",""1"",""3""]","[0.569,0.746,0.978,1.183,1.384,1.576,1.701,1.931,2.083,2.301,2.487,2.67,3.072,3.258,3.5,3.85,4.018,4.67,4.867,5.185,5.372,5.522,6.033,6.224,6.52,6.734,6.884,7.214,7.427,7.717,7.929,8.106,8.627,9.034,9.267,9.469,9.652,10]",0,18,18,18,1,41324,,10,1,2020-10-06_09h16.52.292,Sequence Training,2020.1.3,Win32,60
"[""4"",""1"",""3"",""2"",""4"",""4"",""1"",""3"",""2"",""4"",""4"",""1"",""3"",""2"",""4"",""4"",""1"",""3"",""2"",""4"",""4"",""1"",""3"",""2"",""4"",""4"",""1"",""3"",""2"",""4"",""4"",""1"",""3"",""2"",""4"",""4"",""1""]","[0.388,0.559,0.805,0.997,1.22,1.407,1.557,1.822,2.018,2.237,2.417,2.57,2.967,3.163,3.427,3.614,3.96,4.45,4.63,4.886,5.064,5.419,5.701,5.894,6.13,6.458,6.668,7.067,7.284,7.547,7.78,7.957,8.326,9.14,9.361,9.531,9.837]",0,19,19,19,1,41324,,10,1,2020-10-06_09h16.52.292,Sequence Training,2020.1.3,Win32,60
"[""4"",""1"",""3"",""2"",""4"",""4"",""1"",""3"",""2"",""4"",""4"",""1"",""3"",""2"",""4"",""4"",""1"",""3"",""2"",""4"",""4"",""1"",""3"",""2"",""4"",""4"",""1"",""3"",""2"",""4"",""1"",""4"",""1""]","[0.467,0.658,0.904,1.104,1.334,1.511,1.661,1.902,2.085,2.317,2.517,2.678,3.012,3.18,3.438,3.657,3.822,4.134,4.328,4.56,5.289,5.714,5.992,6.184,6.461,6.68,6.908,7.401,7.56,7.95,8.18,9.529,9.761]",0,20,20,20,1,41324,,10,1,2020-10-06_09h16.52.292,Sequence Training,2020.1.3,Win32,60
"[""4"",""1"",""3"",""2"",""4"",""4"",""1"",""3"",""2"",""4"",""4"",""1"",""3"",""2"",""4"",""4"",""1"",""3"",""2"",""4"",""4"",""1"",""3"",""2"",""4"",""4"",""1"",""3"",""2"",""4"",""4"",""1"",""3"",""2"",""4"",""4"",""1""]","[0.466,0.621,0.904,1.063,1.278,1.478,1.666,2.669,2.86,3.079,3.261,3.407,3.667,3.845,4.087,4.279,4.396,4.666,4.88,5.2,5.616,5.746,6.33,6.435,6.733,7.141,7.283,7.567,7.853,8.053,8.273,8.413,8.738,8.979,9.279,9.645,9.868]",0,21,21,21,1,41324,,0,1,2020-10-06_09h16.52.292,Sequence Training,2020.1.3,Win32,60
