Key_Response.keys,Key_Response.rt,trials.thisRepN,trials.thisTrialN,trials.thisN,trials.thisIndex,trials.ran,Sequences,Repeat,BreakTime,session,date,expName,psychopyVersion,OS,frameRate
"[""4"",""1"",""3"",""2"",""4"",""4"",""1"",""3"",""2"",""4"",""4"",""1"",""3"",""2"",""4"",""4"",""1""]","[1.852,2.195,2.623,2.882,3.258,4.515,6.453,6.916,7.159,7.434,7.767,8.157,8.475,8.724,9.008,9.382,9.759]",0,0,0,0,1,41324,,10,1,2020-10-06_10h14.00.838,Sequence Training,2020.1.3,Win32,60
"[""4"",""1"",""3"",""2"",""4"",""4"",""1"",""3"",""2"",""1"",""4"",""1"",""3"",""2"",""4"",""4"",""1"",""3"",""2"",""1""]","[0.757,1.11,1.555,1.841,2.18,2.553,2.876,3.267,3.546,3.917,5.091,5.5,6.443,6.912,7.228,7.777,8.05,8.409,8.656,9.924]",0,1,1,1,1,41324,,10,1,2020-10-06_10h14.00.838,Sequence Training,2020.1.3,Win32,60
"[""4"",""1"",""3"",""2"",""4"",""4"",""1"",""3"",""2"",""1"",""4"",""1"",""3"",""2"",""4"",""4"",""1"",""3"",""2""]","[1.556,2.81,3.226,3.533,3.85,4.419,4.805,5.239,5.577,6.031,6.958,7.725,8.033,8.298,8.71,9.139,9.415,9.745,9.973]",0,2,2,2,1,41324,,10,1,2020-10-06_10h14.00.838,Sequence Training,2020.1.3,Win32,60
"[""4"",""1"",""3"",""2"",""4"",""4"",""1"",""3"",""2"",""4"",""4"",""1"",""3"",""2"",""4"",""4"",""1"",""3"",""2"",""4"",""4"",""1""]","[1.284,1.638,1.914,2.197,3.29,3.66,3.91,4.233,4.475,4.833,5.122,5.367,5.648,5.876,6.444,6.75,6.991,7.312,7.541,8.717,9.024,9.81]",0,3,3,3,1,41324,,10,1,2020-10-06_10h14.00.838,Sequence Training,2020.1.3,Win32,60
"[""4"",""1"",""3"",""2"",""4"",""4"",""1"",""3"",""2"",""4"",""4"",""1"",""3"",""2"",""4"",""4"",""1"",""3"",""2"",""4"",""4"",""1"",""3"",""2"",""4""]","[1.38,1.721,2.018,2.272,3.073,3.388,3.633,3.902,4.142,4.511,4.868,5.085,5.381,5.656,5.939,6.198,6.441,6.991,7.239,7.545,7.793,8.994,9.276,9.467,9.801]",0,4,4,4,1,41324,,30,1,2020-10-06_10h14.00.838,Sequence Training,2020.1.3,Win32,60
"[""4"",""1"",""3"",""2"",""4"",""4"",""1"",""3"",""2"",""4"",""4"",""1"",""3"",""2"",""4"",""4"",""1"",""3"",""2"",""4"",""4"",""1"",""3"",""2"",""4"",""4"",""1"",""3"",""2"",""4""]","[1.472,1.764,2.067,2.346,2.647,3.164,3.401,3.681,3.926,4.222,4.683,4.969,5.274,5.533,5.951,6.308,6.52,6.79,7.029,7.295,7.6,7.818,8.097,8.335,8.567,8.862,9.073,9.372,9.597,9.876]",0,5,5,5,1,41324,,0,1,2020-10-06_10h14.00.838,Sequence Training,2020.1.3,Win32,60
"[""4"",""2"",""3"",""1"",""4"",""4"",""2"",""3"",""1"",""4"",""4"",""3"",""2"",""1"",""4"",""4"",""2"",""3"",""1"",""4""]","[0.117,1.251,1.49,1.714,1.996,2.615,2.92,3.202,3.464,3.717,4.248,4.852,6.317,6.626,7.095,7.662,8.33,8.789,9.233,9.568]",0,6,6,6,1,42314,,10,1,2020-10-06_10h14.00.838,Sequence Training,2020.1.3,Win32,60
"[""4"",""1"",""3"",""2"",""4"",""4"",""1"",""3"",""2"",""4"",""4"",""1"",""3"",""2"",""4"",""4"",""1"",""3"",""2"",""4"",""4"",""1"",""3"",""2"",""4"",""4"",""1"",""3""]","[1.474,1.806,2.225,2.539,2.828,3.206,3.458,3.734,4.01,4.348,4.741,5.017,5.336,5.623,5.905,6.228,6.502,7.077,7.331,7.6,7.896,8.135,8.552,8.785,9.034,9.324,9.543,9.821]",0,7,7,7,1,41324,,0,1,2020-10-06_10h14.00.838,Sequence Training,2020.1.3,Win32,60
"[""4"",""2"",""3"",""1"",""4"",""4"",""2"",""3"",""1"",""4"",""4"",""2"",""3"",""1"",""4"",""4"",""2"",""3"",""1"",""4"",""4"",""2"",""3"",""1"",""4""]","[0.385,1.773,2.07,2.375,2.661,3.296,3.612,3.897,4.171,4.474,5.036,5.42,5.691,5.985,6.276,6.728,7.036,7.541,7.805,8.085,8.474,8.78,9.041,9.267,9.517]",0,8,8,8,1,42314,,10,1,2020-10-06_10h14.00.838,Sequence Training,2020.1.3,Win32,60
"[""4"",""1"",""3"",""2"",""4"",""4"",""1"",""3"",""2"",""4"",""4"",""1"",""3"",""2"",""4"",""4"",""1"",""3"",""2"",""4"",""4"",""1"",""3"",""2"",""4""]","[1.751,2.792,3.123,3.387,3.653,4.001,4.229,4.558,4.97,5.269,5.547,5.8,6.196,6.461,6.739,7.055,7.61,7.94,8.248,8.489,8.847,9.14,9.508,9.75,9.98]",0,9,9,9,1,41324,,0,1,2020-10-06_10h14.00.838,Sequence Training,2020.1.3,Win32,60
"[""4"",""2"",""3"",""1"",""4"",""4"",""2"",""3"",""1"",""4"",""4"",""2"",""3"",""1"",""4"",""4"",""2"",""3"",""1"",""4"",""4"",""2"",""3"",""1"",""4"",""4"",""2"",""3"",""1"",""4""]","[0.707,1.087,1.358,1.588,1.858,2.367,2.694,2.95,3.229,3.486,3.856,4.161,4.474,4.7,4.956,5.367,5.661,5.918,6.157,6.4,6.817,7.151,7.431,7.684,7.96,8.417,8.703,8.962,9.317,9.6]",0,10,10,10,1,42314,,10,1,2020-10-06_10h14.00.838,Sequence Training,2020.1.3,Win32,60
"[""4"",""1"",""3"",""2"",""4"",""4"",""1"",""3"",""2"",""4"",""4"",""1"",""3"",""2"",""4"",""4"",""1"",""3"",""2"",""4"",""4"",""1"",""3"",""2"",""4"",""4"",""1"",""3""]","[1.479,1.744,2.002,2.679,2.948,3.261,3.497,3.821,4.046,4.301,4.587,4.893,5.502,5.812,6.064,6.343,6.626,7,7.25,7.474,7.733,8.056,8.443,8.713,8.953,9.225,9.621,9.964]",0,11,11,11,1,41324,,0,1,2020-10-06_10h14.00.838,Sequence Training,2020.1.3,Win32,60
"[""2"",""4"",""3"",""2"",""1"",""4"",""2"",""3"",""1"",""4"",""4"",""2"",""3"",""1"",""4"",""4"",""2"",""3"",""1"",""4"",""4"",""2"",""3"",""1"",""4"",""4""]","[0.16,1.2,2.033,2.542,2.734,3.388,3.969,4.242,4.46,4.701,5.05,5.362,5.594,5.814,6.06,6.538,6.925,7.401,7.672,7.9,8.353,8.722,9.072,9.28,9.515,9.865]",0,12,12,12,1,42314,,10,1,2020-10-06_10h14.00.838,Sequence Training,2020.1.3,Win32,60
"[""4"",""1"",""3"",""2"",""4"",""4"",""1"",""3"",""2"",""4"",""4"",""1"",""3"",""2"",""4"",""4"",""1"",""3"",""2"",""4"",""4"",""1"",""3"",""2"",""4"",""4"",""1""]","[1.285,2.042,2.35,2.589,2.85,3.173,3.413,3.72,3.945,4.192,4.456,4.765,5.083,5.312,5.542,5.796,6.363,6.723,6.983,7.204,7.527,8.1,8.518,8.758,9.002,9.327,9.805]",0,13,13,13,1,41324,,0,1,2020-10-06_10h14.00.838,Sequence Training,2020.1.3,Win32,60
"[""4"",""2"",""3"",""1"",""4"",""4"",""2"",""3"",""1"",""4"",""4"",""2"",""3"",""1"",""4"",""4"",""2"",""3"",""1"",""4"",""4"",""2"",""3"",""1"",""4"",""4"",""2"",""3"",""1"",""4""]","[0.926,1.436,1.74,1.986,2.234,2.54,2.9,3.194,3.508,3.835,4.413,4.717,4.971,5.183,5.4,5.753,6.063,6.327,6.538,6.773,7.097,7.524,7.793,8.067,8.28,8.648,9.197,9.445,9.667,9.872]",0,14,14,14,1,42314,,10,1,2020-10-06_10h14.00.838,Sequence Training,2020.1.3,Win32,60
"[""4"",""1"",""3"",""2"",""4"",""4"",""1"",""3"",""2"",""4"",""4"",""1"",""3"",""2"",""4"",""4"",""1"",""3"",""2"",""4"",""4"",""1"",""3"",""2"",""4"",""4"",""1""]","[1.197,1.484,2.034,2.302,2.567,2.889,3.118,3.709,3.954,4.189,4.49,4.863,5.251,5.5,5.77,6.053,6.334,6.689,6.954,7.188,7.492,8.186,8.681,8.931,9.175,9.542,9.845]",0,15,15,15,1,41324,,10,1,2020-10-06_10h14.00.838,Sequence Training,2020.1.3,Win32,60
"[""4"",""1"",""3"",""2"",""4"",""4"",""1"",""3"",""2"",""4"",""4"",""1"",""3"",""2"",""4"",""4"",""1"",""3"",""2"",""4"",""4"",""1"",""3"",""2"",""4"",""4""]","[0.769,1.37,1.755,2.108,2.387,2.67,3.193,3.508,3.741,3.989,4.278,4.67,5.122,5.371,5.604,5.874,6.338,6.767,7.11,7.452,7.736,8.346,8.839,9.07,9.339,9.651]",0,16,16,16,1,41324,,10,1,2020-10-06_10h14.00.838,Sequence Training,2020.1.3,Win32,60
"[""4"",""1"",""3"",""2"",""4"",""4"",""1"",""3"",""2"",""4"",""4"",""1"",""3"",""2"",""4"",""4"",""1"",""3"",""2"",""4"",""4"",""1"",""3"",""2"",""4"",""4""]","[1.378,2.25,2.537,2.789,3.029,3.288,3.561,3.86,4.081,4.324,4.6,5.125,5.446,5.984,6.243,6.573,7.311,7.884,8.109,8.317,8.565,8.924,9.274,9.511,9.721,9.992]",0,17,17,17,1,41324,,10,1,2020-10-06_10h14.00.838,Sequence Training,2020.1.3,Win32,60
"[""4"",""1"",""3"",""2"",""4"",""4"",""1"",""3"",""2"",""4"",""4"",""1"",""3"",""2"",""4"",""4"",""1"",""3"",""2"",""4"",""4"",""1"",""3"",""2"",""4"",""4"",""1"",""3""]","[0.737,1.089,1.35,1.577,1.789,2.063,2.333,2.683,2.946,3.205,3.523,4.004,4.523,4.824,5.089,5.333,5.715,6.028,6.281,6.559,6.854,7.252,7.843,8.094,8.321,8.591,9.226,9.875]",0,18,18,18,1,41324,,10,1,2020-10-06_10h14.00.838,Sequence Training,2020.1.3,Win32,60
"[""4"",""1"",""3"",""2"",""4"",""4"",""1"",""3"",""2"",""4"",""4"",""2"",""1"",""3"",""2"",""4"",""1"",""3"",""2"",""4"",""4"",""1"",""3"",""2""]","[0.961,1.358,1.711,1.962,2.205,2.533,2.767,3.073,3.291,3.52,3.787,4.255,5.547,5.802,6.021,6.469,6.762,7.768,8.017,8.258,8.695,8.934,9.305,9.524]",0,19,19,19,1,41324,,10,1,2020-10-06_10h14.00.838,Sequence Training,2020.1.3,Win32,60
"[""4"",""1"",""3"",""2"",""4"",""4"",""1"",""3"",""2"",""4"",""4"",""1"",""3"",""2"",""4"",""4"",""1"",""3"",""2"",""4"",""4"",""1"",""3"",""2"",""4"",""4"",""1"",""3"",""2"",""4"",""4""]","[1.544,1.867,2.171,2.398,2.62,2.897,3.113,3.389,3.629,3.83,4.059,4.287,4.558,4.786,4.992,5.246,5.488,5.777,5.984,6.2,6.527,6.821,7.131,7.35,7.581,7.884,8.477,9.117,9.327,9.6,9.9]",0,20,20,20,1,41324,,10,1,2020-10-06_10h14.00.838,Sequence Training,2020.1.3,Win32,60
"[""4"",""1"",""3"",""2"",""4"",""4"",""1"",""3"",""2"",""4"",""4"",""1"",""3"",""2"",""4"",""4"",""1"",""3"",""2"",""4"",""4"",""1"",""3"",""2"",""4"",""4"",""1"",""3"",""2"",""4"",""4"",""1"",""3""]","[0.555,0.792,1.033,1.263,1.48,1.771,2.201,2.517,2.727,2.956,3.228,3.617,3.903,4.128,4.335,4.587,5.119,5.417,5.645,5.863,6.16,6.68,7.005,7.226,7.461,7.713,8.005,8.352,8.536,8.743,9.053,9.501,9.821]",0,21,21,21,1,41324,,0,1,2020-10-06_10h14.00.838,Sequence Training,2020.1.3,Win32,60
