Key_Response.keys,Key_Response.rt,trials.thisRepN,trials.thisTrialN,trials.thisN,trials.thisIndex,trials.ran,Sequences,Repeat,BreakTime,session,date,expName,psychopyVersion,OS,frameRate
"[""4"",""1"",""3"",""2"",""4"",""4"",""1"",""3"",""2"",""4"",""4"",""1"",""3"",""2"",""4"",""4"",""1"",""3"",""2"",""4"",""4"",""1"",""3"",""2"",""4"",""4"",""1"",""3"",""2"",""4"",""4"",""1""]","[1.096,1.245,2.21,2.324,2.85,3.435,3.53,3.992,4.078,4.349,4.779,4.825,5.354,5.451,5.629,6.002,6.079,6.458,6.558,6.719,7.177,7.4,7.997,8.082,8.274,8.546,8.612,9.002,9.099,9.276,9.583,9.665]",0,0,0,0,1,41324,,10,1,2021-01-12_16h46.56.341,Sequence Training,2020.1.3,Win32,60
"[""4"",""1"",""3"",""2"",""4"",""4"",""1"",""3"",""2"",""4"",""4"",""1"",""3"",""2"",""4"",""4"",""1"",""3"",""2"",""4"",""4"",""1"",""3"",""2"",""4"",""4"",""1"",""3"",""2"",""4"",""4"",""1"",""3"",""2"",""4"",""4"",""1"",""3"",""2"",""4"",""4"",""1"",""3"",""2"",""4"",""4""]","[0.849,0.927,1.195,1.332,1.469,1.747,1.823,2.19,2.298,2.43,2.665,2.777,3.02,3.128,3.249,3.677,3.747,4.16,4.252,4.382,4.668,4.764,5.117,5.227,5.39,5.68,5.776,6.113,6.225,6.402,6.671,6.763,7.07,7.201,7.357,7.844,7.963,8.311,8.428,8.575,8.839,8.98,9.361,9.445,9.581,9.982]",0,1,1,1,1,41324,,10,1,2021-01-12_16h46.56.341,Sequence Training,2020.1.3,Win32,60
"[""4"",""1"",""3"",""2"",""4"",""4"",""1"",""4"",""3"",""4"",""1"",""3"",""2"",""4"",""4"",""1"",""3"",""2"",""4"",""4"",""1"",""3"",""2"",""4"",""4"",""1"",""3"",""2"",""4"",""4"",""1"",""3"",""2"",""4"",""4"",""1"",""3"",""2"",""4""]","[0.736,0.819,1.11,1.238,1.324,1.658,1.763,1.988,2.086,4.009,4.089,4.347,4.472,4.541,5.038,5.121,5.459,5.602,5.739,6.076,6.161,6.489,6.603,6.744,7.105,7.206,7.522,7.623,7.771,8.173,8.302,8.61,8.732,8.843,9.168,9.294,9.624,9.754,9.879]",0,2,2,2,1,41324,,10,1,2021-01-12_16h46.56.341,Sequence Training,2020.1.3,Win32,60
"[""4"",""1"",""3"",""2"",""4"",""4"",""1"",""3"",""2"",""4"",""4"",""1"",""3"",""2"",""4"",""4"",""1"",""3"",""2"",""4"",""4"",""1"",""3"",""2"",""4"",""4"",""1"",""3"",""2"",""4"",""4"",""1"",""3"",""2"",""4"",""4"",""1"",""3"",""2"",""4"",""4"",""1"",""3"",""2"",""4"",""4"",""1"",""3"",""2"",""4""]","[0.541,0.62,0.724,0.821,0.926,1.325,1.402,1.626,1.724,1.8,2.266,2.338,2.533,2.616,2.692,3.356,3.425,3.584,3.651,3.783,4.517,4.585,4.725,4.822,4.921,5.45,5.517,5.657,5.765,5.866,6.234,6.317,6.466,6.633,7.043,7.385,7.464,7.639,7.737,7.857,8.302,8.385,8.759,8.866,8.993,9.321,9.45,9.717,9.851,9.988]",0,3,3,3,1,41324,,10,1,2021-01-12_16h46.56.341,Sequence Training,2020.1.3,Win32,60
"[""4"",""1"",""3"",""2"",""4"",""4"",""1"",""3"",""2"",""4"",""4"",""1"",""3"",""2"",""4"",""4"",""1"",""3"",""2"",""4"",""4"",""1"",""3"",""2"",""4"",""4"",""1"",""3"",""2"",""4"",""4"",""1"",""3"",""2"",""4"",""4"",""1"",""3"",""2"",""4"",""4"",""1"",""3"",""2"",""4"",""4"",""1""]","[0.821,0.88,0.974,1.103,1.228,1.657,1.734,1.963,2.077,2.194,2.52,2.593,2.799,2.924,3.057,3.341,3.427,3.557,3.703,3.811,4.456,4.54,4.67,4.787,4.858,5.545,5.644,5.747,5.871,6,6.308,6.416,6.507,6.64,6.735,7.242,7.341,7.445,7.571,7.665,8.028,8.13,8.474,8.885,9.228,9.556,9.693]",0,4,4,4,1,41324,,30,1,2021-01-12_16h46.56.341,Sequence Training,2020.1.3,Win32,60
"[""4"",""1"",""3"",""2"",""4"",""1"",""4"",""1"",""3"",""2"",""4"",""4"",""1"",""3"",""2"",""4"",""4"",""1"",""3"",""2"",""4"",""4"",""1"",""3"",""2"",""4"",""4"",""1"",""3"",""2"",""4""]","[1.185,1.277,1.415,1.541,1.685,1.818,4.051,4.184,4.317,4.478,4.637,4.994,5.128,5.301,5.44,5.618,6.001,6.139,6.313,6.465,6.619,6.989,7.132,7.254,7.398,7.527,9.52,9.648,9.758,9.865,10.016]",0,5,5,5,1,41324,,0,1,2021-01-12_16h46.56.341,Sequence Training,2020.1.3,Win32,60
"[""4"",""2"",""3"",""1"",""4"",""4"",""2"",""3"",""1"",""4"",""4"",""2"",""3"",""1"",""4"",""4"",""2"",""3"",""1"",""4"",""4"",""2"",""3"",""1"",""4"",""4"",""2"",""3"",""1"",""4"",""4"",""2""]","[0.894,1.572,1.872,2.017,2.181,3.558,3.819,4.04,4.789,4.99,5.306,5.515,5.729,5.93,6.064,6.32,6.503,6.69,6.89,7.039,7.331,7.523,7.692,7.895,8.023,8.414,8.594,8.789,9.002,9.127,9.489,9.878]",0,6,6,6,1,42314,,10,1,2021-01-12_16h46.56.341,Sequence Training,2020.1.3,Win32,60
"[""4"",""1"",""3"",""2"",""4"",""4"",""1"",""3"",""2"",""4"",""4"",""1"",""3"",""2"",""4"",""4"",""1"",""3"",""2"",""4"",""4"",""1"",""3"",""2"",""4"",""4"",""1"",""3"",""2"",""4"",""4"",""1"",""3"",""2"",""4"",""4""]","[0.894,1.058,1.558,1.663,1.777,2.1,2.195,2.774,2.9,3.066,3.361,3.498,4.042,4.225,4.379,4.691,4.878,5.169,5.353,5.517,5.824,6.202,6.576,6.76,6.928,7.219,7.433,7.878,8.045,8.201,8.519,8.715,9.24,9.428,9.601,9.911]",0,7,7,7,1,41324,,0,1,2021-01-12_16h46.56.341,Sequence Training,2020.1.3,Win32,60
"[""1"",""4"",""2"",""3"",""1"",""4"",""4"",""2"",""3"",""1"",""4"",""4"",""2"",""3"",""1"",""4"",""4"",""2"",""3"",""1"",""4"",""4"",""2"",""3"",""1"",""4"",""4"",""2"",""3"",""1"",""4"",""4""]","[0.059,2.248,2.414,2.584,2.781,2.931,4.234,4.408,4.577,4.751,4.907,5.187,5.394,5.563,5.746,5.898,6.197,6.397,6.581,6.868,7.048,7.395,7.627,7.799,7.985,8.161,8.472,9.001,9.18,9.378,9.534,9.905]",0,8,8,8,1,42314,,10,1,2021-01-12_16h46.56.341,Sequence Training,2020.1.3,Win32,60
"[""4"",""1"",""3"",""2"",""4"",""4"",""1"",""2"",""3"",""4"",""4"",""1"",""3"",""2"",""4"",""4"",""1"",""3"",""2"",""4"",""4"",""1"",""3"",""2"",""4"",""4"",""1"",""3"",""2"",""4"",""4"",""1"",""3"",""2"",""4""]","[1.359,1.53,2.111,2.272,2.433,2.712,2.884,3.106,3.203,4.08,4.446,4.61,5.014,5.168,5.347,5.666,5.852,6.149,6.32,6.476,6.732,6.903,7.196,7.35,7.516,7.782,7.926,8.236,8.396,8.563,8.833,8.993,9.322,9.501,9.716]",0,9,9,9,1,41324,,0,1,2021-01-12_16h46.56.341,Sequence Training,2020.1.3,Win32,60
"[""4"",""2"",""3"",""1"",""4"",""4"",""2"",""3"",""1"",""4"",""4"",""2"",""3"",""1"",""4"",""4"",""2"",""3"",""1"",""4"",""4"",""2"",""3"",""1"",""4"",""4"",""2"",""3"",""1"",""4"",""4"",""2"",""3"",""1"",""4"",""4"",""2"",""3"",""1"",""4"",""4"",""2""]","[0.854,1.044,1.37,1.546,1.717,2.015,2.224,2.561,2.736,2.923,3.195,3.383,3.653,3.832,4.006,4.407,4.603,4.778,4.975,5.169,5.556,5.742,5.928,6.107,6.273,6.546,6.737,6.9,7.097,7.271,7.57,7.784,8.036,8.21,8.398,8.701,8.887,9.072,9.232,9.411,9.788,9.962]",0,10,10,10,1,42314,,10,1,2021-01-12_16h46.56.341,Sequence Training,2020.1.3,Win32,60
"[""4"",""1"",""3"",""2"",""4"",""4"",""1"",""3"",""2"",""4"",""4"",""1"",""3"",""2"",""4"",""4"",""1"",""3"",""2"",""4"",""4"",""1"",""3"",""2"",""4"",""4"",""1"",""3"",""2"",""4"",""4"",""1"",""3"",""2"",""4"",""4"",""1"",""3"",""2"",""4""]","[0.613,0.767,1.188,1.34,1.511,1.727,1.896,2.185,2.357,2.526,2.804,2.938,3.322,3.478,3.671,3.892,4.07,4.295,4.557,4.845,5.156,5.384,6.188,6.367,6.492,6.761,6.951,7.195,7.39,7.571,7.89,8.171,8.492,8.665,8.842,9.049,9.21,9.442,9.622,9.808]",0,11,11,11,1,41324,,0,1,2021-01-12_16h46.56.341,Sequence Training,2020.1.3,Win32,60
"[""4"",""2"",""3"",""1"",""4"",""4"",""2"",""3"",""1"",""4"",""4"",""2"",""3"",""1"",""4"",""4"",""2"",""3"",""1"",""4"",""4"",""2"",""3"",""1"",""4"",""4"",""2"",""3"",""1"",""4"",""4"",""2"",""3"",""1"",""4"",""4"",""2"",""3"",""1"",""4"",""4"",""2"",""3"",""1"",""4""]","[0.132,0.786,0.969,1.106,1.337,1.617,1.936,2.123,2.294,2.475,2.726,2.918,3.111,3.268,3.457,3.683,3.868,4.056,4.256,4.423,4.626,4.828,5.019,5.194,5.543,5.771,6.103,6.279,6.469,6.657,6.872,7.075,7.29,7.509,7.698,7.925,8.104,8.293,8.474,8.674,8.891,9.09,9.278,9.481,9.694]",0,12,12,12,1,42314,,10,1,2021-01-12_16h46.56.341,Sequence Training,2020.1.3,Win32,60
"[""4"",""1"",""3"",""2"",""4"",""4"",""1"",""3"",""2"",""4"",""4"",""1"",""3"",""2"",""4"",""4"",""1"",""3"",""2"",""4"",""4"",""1"",""3"",""2"",""4"",""4"",""1"",""3"",""2"",""4"",""4"",""1"",""3"",""2"",""3""]","[0.834,0.995,1.424,1.574,1.745,1.928,2.076,2.521,2.714,2.898,3.096,3.275,3.56,3.738,3.922,4.125,4.306,4.709,4.881,5.06,5.255,5.444,5.916,6.107,6.34,6.641,6.832,7.128,7.319,7.642,8.069,8.279,9.175,9.391,9.592]",0,13,13,13,1,41324,,0,1,2021-01-12_16h46.56.341,Sequence Training,2020.1.3,Win32,60
"[""4"",""2"",""3"",""1"",""4"",""4"",""2"",""3"",""1"",""4"",""4"",""2"",""3"",""1"",""4"",""4"",""2"",""3"",""1"",""4"",""4"",""2"",""3"",""1"",""4"",""4"",""2"",""3"",""1"",""4"",""4"",""2"",""3"",""1"",""4"",""4"",""2"",""3"",""1"",""4"",""4"",""2"",""3"",""1"",""4"",""4"",""2"",""3""]","[0.208,0.771,0.937,1.117,1.273,1.656,1.854,2.07,2.264,2.41,2.627,2.81,3.011,3.158,3.355,3.559,3.755,3.947,4.14,4.318,4.511,4.712,4.92,5.119,5.29,5.507,5.679,5.863,6.046,6.231,6.542,6.743,6.94,7.108,7.302,7.647,7.824,8.007,8.169,8.371,8.658,8.844,9.055,9.196,9.406,9.607,9.791,9.958]",0,14,14,14,1,42314,,10,1,2021-01-12_16h46.56.341,Sequence Training,2020.1.3,Win32,60
"[""4"",""1"",""3"",""2"",""4"",""4"",""1"",""2"",""3"",""4"",""4"",""1"",""3"",""2"",""4"",""4"",""1"",""3"",""2"",""4"",""4"",""1"",""3"",""2"",""4"",""1"",""3"",""2"",""4"",""4"",""1"",""3""]","[0.519,1.016,1.482,1.62,1.801,1.998,2.127,2.374,3.221,3.401,3.658,3.824,4.164,4.322,4.498,4.756,4.955,5.611,5.804,6.001,6.269,6.467,6.919,7.107,7.315,7.516,8.603,8.785,8.959,9.234,9.453,9.916]",0,15,15,15,1,41324,,10,1,2021-01-12_16h46.56.341,Sequence Training,2020.1.3,Win32,60
"[""4"",""1"",""3"",""2"",""4"",""4"",""1"",""3"",""2"",""4"",""4"",""1"",""3"",""2"",""4"",""4"",""1"",""3"",""2"",""4"",""4"",""1"",""3"",""2"",""4"",""4"",""1"",""3"",""2"",""4"",""4"",""1"",""3"",""2"",""4"",""4"",""1"",""3"",""2"",""4"",""4""]","[0.569,0.724,0.952,1.167,1.335,1.519,1.686,2.057,2.232,2.416,2.627,2.81,3.152,3.334,3.526,3.872,4.067,4.306,4.502,4.672,5.051,5.253,5.587,5.775,5.971,6.271,6.488,6.908,7.108,7.277,7.473,7.65,8.017,8.221,8.392,8.603,8.771,9.073,9.27,9.454,9.854]",0,16,16,16,1,41324,,10,1,2021-01-12_16h46.56.341,Sequence Training,2020.1.3,Win32,60
"[""4"",""1"",""3"",""2"",""4"",""4"",""1"",""3"",""2"",""4"",""4"",""1"",""3"",""2"",""4"",""4"",""1"",""3"",""2"",""4"",""4"",""1"",""3"",""2"",""4"",""4"",""1"",""3"",""2"",""4"",""4"",""1"",""3"",""2"",""4"",""4"",""1"",""3"",""2"",""4""]","[0.775,0.941,1.16,1.347,1.527,1.724,1.912,2.212,2.408,2.583,2.809,3.015,3.221,3.421,3.596,3.811,4.042,4.491,4.688,4.894,5.256,5.465,5.822,6.007,6.222,6.556,6.727,7.012,7.178,7.354,7.613,7.819,8.243,8.391,8.581,8.792,8.962,9.377,9.728,9.915]",0,17,17,17,1,41324,,10,1,2021-01-12_16h46.56.341,Sequence Training,2020.1.3,Win32,60
"[""4"",""1"",""3"",""2"",""4"",""4"",""1"",""3"",""2"",""4"",""4"",""1"",""3"",""2"",""4"",""4"",""1"",""3"",""2"",""4"",""4"",""1"",""3"",""2"",""4"",""4"",""1"",""3"",""2"",""4"",""4"",""1"",""3"",""2"",""4"",""4"",""1"",""3"",""2"",""4"",""4"",""1"",""3"",""2"",""4"",""4""]","[0.837,0.961,1.107,1.223,1.379,1.582,1.724,1.858,1.967,2.092,2.54,2.741,2.941,3.125,3.325,3.567,3.743,3.917,4.096,4.303,4.557,4.724,4.899,5.057,5.257,5.483,5.662,5.858,6.007,6.215,6.481,6.67,6.823,6.999,7.199,7.571,7.792,7.966,8.142,8.342,8.776,8.973,9.173,9.327,9.554,9.94]",0,18,18,18,1,41324,,10,1,2021-01-12_16h46.56.341,Sequence Training,2020.1.3,Win32,60
"[""4"",""1"",""3"",""2"",""4"",""4"",""1"",""3"",""2"",""4"",""4"",""1"",""3"",""2"",""4"",""4"",""1"",""3"",""2"",""4"",""4"",""1"",""3"",""2"",""4"",""4"",""1"",""3"",""2"",""4"",""4"",""1"",""3"",""2"",""4"",""4"",""1"",""3"",""2"",""4""]","[0.684,0.828,1.029,1.194,1.411,1.79,1.945,2.135,2.298,2.507,3.211,3.386,3.588,3.755,3.963,4.352,4.506,4.707,4.857,5.045,5.866,6.024,6.198,6.336,6.527,6.875,7.044,7.224,7.38,7.604,7.993,8.164,8.345,8.523,8.723,9.106,9.283,9.453,9.603,9.813]",0,19,19,19,1,41324,,10,1,2021-01-12_16h46.56.341,Sequence Training,2020.1.3,Win32,60
"[""4"",""1"",""3"",""2"",""4"",""4"",""1"",""3"",""2"",""4"",""4"",""1"",""3"",""2"",""4"",""4"",""1"",""3"",""2"",""4"",""4"",""1"",""3"",""2"",""4"",""4"",""1"",""3"",""2"",""4"",""4"",""1"",""3"",""2"",""4"",""4"",""1"",""3"",""2"",""4"",""4"",""1""]","[0.807,0.969,1.136,1.304,1.505,1.89,2.063,2.242,2.405,2.626,3.01,3.193,3.359,3.53,3.739,4.099,4.279,4.461,4.641,4.841,5.224,5.399,5.58,5.764,5.991,6.373,6.549,6.729,6.895,7.096,7.506,7.688,7.863,8.045,8.232,8.641,8.838,9.011,9.189,9.378,9.829,10.007]",0,20,20,20,1,41324,,10,1,2021-01-12_16h46.56.341,Sequence Training,2020.1.3,Win32,60
"[""4"",""1"",""3"",""2"",""4"",""4"",""1"",""3"",""2"",""4"",""4"",""1"",""3"",""2"",""4"",""4"",""1"",""3"",""2"",""4"",""4"",""1"",""3"",""2"",""4"",""4"",""1"",""3"",""2"",""4"",""4"",""1"",""3"",""2"",""4"",""4"",""1"",""3"",""2"",""4"",""4"",""1"",""3""]","[1.129,1.311,1.501,1.687,1.904,2.277,2.462,2.645,2.842,3.046,3.412,3.595,3.779,3.958,4.179,4.547,4.697,4.883,5.062,5.263,5.601,5.763,5.927,6.095,6.268,6.611,6.746,6.904,7.046,7.217,7.579,7.747,7.893,8.058,8.193,8.651,8.826,8.97,9.109,9.275,9.632,9.781,9.931]",0,21,21,21,1,41324,,0,1,2021-01-12_16h46.56.341,Sequence Training,2020.1.3,Win32,60
