Key_Response.keys,Key_Response.rt,trials.thisRepN,trials.thisTrialN,trials.thisN,trials.thisIndex,trials.ran,Sequences,Repeat,BreakTime,session,date,expName,psychopyVersion,OS,frameRate
"[""4"",""1"",""3"",""2"",""4"",""4"",""1"",""3"",""2"",""4"",""4"",""1"",""3"",""2"",""4"",""4"",""1"",""3"",""2"",""4"",""4"",""1"",""3""]","[1.383,1.678,2.275,2.596,2.967,3.451,3.795,4.193,4.529,4.858,5.208,5.494,5.811,6.142,6.476,7.107,7.398,7.774,8.073,8.407,8.73,9.591,9.983]",0,0,0,0,1,41324,,10,1,2020-12-29_09h05.24.744,Sequence Training,2020.1.3,Linux x86_64,60
"[""4"",""1"",""3"",""2"",""4"",""4"",""1"",""3"",""2"",""4"",""4"",""1"",""3"",""2"",""4"",""4"",""1"",""3"",""2"",""4"",""4"",""1"",""3"",""2"",""4"",""4"",""1"",""3"",""2"",""4"",""4"",""1"",""3"",""2"",""4"",""4""]","[0.847,1.067,1.33,1.602,1.93,2.245,2.493,2.78,3.028,3.259,3.545,3.762,4.047,4.312,4.54,4.827,5.01,5.292,5.541,5.765,6.056,6.275,6.49,6.724,6.932,7.212,7.41,7.768,8.011,8.426,8.737,8.937,9.258,9.492,9.725,9.998]",0,1,1,1,1,41324,,10,1,2020-12-29_09h05.24.744,Sequence Training,2020.1.3,Linux x86_64,60
"[""4"",""1"",""3"",""2"",""4"",""4"",""1"",""3"",""2"",""4"",""4"",""1"",""3"",""2"",""4"",""4"",""1"",""3"",""2"",""4"",""4"",""1"",""3"",""2"",""4"",""4"",""1"",""3"",""2"",""4"",""4"",""1"",""3"",""2"",""4"",""4"",""1"",""3"",""2"",""4"",""4""]","[0.523,0.755,1.028,1.259,1.477,1.725,1.927,2.139,2.37,2.601,2.851,3.052,3.35,3.591,3.816,4.057,4.286,4.524,4.748,4.953,5.197,5.418,5.683,5.916,6.116,6.392,6.581,6.851,7.084,7.282,7.531,7.739,8.029,8.281,8.562,8.829,9.036,9.293,9.515,9.713,9.963]",0,2,2,2,1,41324,,10,1,2020-12-29_09h05.24.744,Sequence Training,2020.1.3,Linux x86_64,60
"[""4"",""1"",""3"",""2"",""4"",""4"",""1"",""3"",""2"",""4"",""4"",""1"",""3"",""2"",""4"",""4"",""1"",""3"",""2"",""4"",""4"",""1"",""3"",""2"",""4"",""4"",""1"",""3"",""2"",""4"",""4"",""1"",""3"",""2"",""4"",""4"",""1"",""3"",""2"",""4"",""4""]","[0.545,0.754,0.987,1.177,1.371,1.592,1.751,1.955,2.109,2.293,2.491,2.671,3.156,3.382,3.624,3.844,4.001,4.258,4.41,4.6,4.837,5.013,5.277,5.513,6.258,6.551,6.715,7.006,7.198,7.395,7.619,7.798,8.177,8.404,8.636,8.854,9.031,9.277,9.479,9.668,9.901]",0,3,3,3,1,41324,,10,1,2020-12-29_09h05.24.744,Sequence Training,2020.1.3,Linux x86_64,60
"[""4"",""1"",""3"",""2"",""4"",""4"",""1"",""3"",""2"",""4"",""4"",""1"",""3"",""2"",""4"",""4"",""1"",""3"",""2"",""4"",""4"",""1"",""3"",""2"",""4"",""4"",""1"",""3"",""2"",""4"",""4"",""1"",""3"",""2"",""4"",""4"",""1"",""3"",""2"",""4"",""4"",""1""]","[0.462,0.639,0.84,1.045,1.228,1.462,1.632,1.871,2.045,2.246,2.468,2.66,2.926,3.126,3.325,3.562,3.763,4.693,4.876,5.063,5.276,5.459,5.691,5.874,6.067,6.275,6.459,6.71,6.923,7.132,7.357,7.519,7.842,8.059,8.274,8.491,8.677,8.986,9.196,9.396,9.638,9.821]",0,4,4,4,1,41324,,30,1,2020-12-29_09h05.24.744,Sequence Training,2020.1.3,Linux x86_64,60
"[""4"",""1"",""3"",""2"",""4"",""4"",""1"",""3"",""2"",""4"",""4"",""1"",""3"",""2"",""4"",""4"",""1"",""3"",""2"",""4"",""4"",""1"",""3"",""2"",""4"",""4"",""1"",""3"",""2"",""4"",""4"",""1"",""3"",""2"",""4"",""4"",""1"",""3"",""2"",""4"",""4"",""1"",""3""]","[0.63,1.043,1.309,1.503,1.694,1.894,2.043,2.227,2.408,2.597,2.85,3.028,3.349,3.558,3.759,3.975,4.159,4.396,4.59,4.764,4.992,5.155,5.389,5.58,5.789,6.009,6.189,6.453,6.637,6.833,7.045,7.205,7.864,8.022,8.203,8.419,8.586,8.824,9.022,9.221,9.454,9.636,9.983]",0,5,5,5,1,41324,,0,1,2020-12-29_09h05.24.744,Sequence Training,2020.1.3,Linux x86_64,60
"[""2"",""4"",""2"",""3"",""1"",""4"",""4"",""2"",""3"",""1"",""4"",""4"",""2"",""3"",""1"",""4"",""4"",""2"",""3"",""1"",""4"",""4"",""2"",""3"",""1"",""4"",""4"",""2"",""3"",""1"",""4""]","[0.119,1.948,2.577,2.796,2.993,3.228,3.694,3.999,4.201,4.414,4.627,5.126,5.442,5.69,5.908,6.13,6.424,6.66,6.898,7.135,7.327,7.607,7.929,8.158,8.395,8.659,8.987,9.246,9.452,9.623,9.823]",0,6,6,6,1,42314,,10,1,2020-12-29_09h05.24.744,Sequence Training,2020.1.3,Linux x86_64,60
"[""4"",""1"",""3"",""2"",""4"",""4"",""1"",""3"",""2"",""4"",""4"",""1"",""3"",""2"",""4"",""4"",""1"",""3"",""2"",""4"",""4"",""1"",""3"",""2"",""4"",""4"",""1"",""3"",""2"",""4"",""4"",""1""]","[0.742,0.963,1.483,1.72,1.997,2.273,2.48,2.78,2.987,3.247,3.497,3.681,3.929,4.133,4.321,4.561,4.799,6.004,6.161,6.361,6.577,6.728,7.636,7.846,8.061,8.298,8.491,9.149,9.357,9.553,9.806,9.99]",0,7,7,7,1,41324,,0,1,2020-12-29_09h05.24.744,Sequence Training,2020.1.3,Linux x86_64,60
"[""4"",""2"",""3"",""1"",""4"",""4"",""2"",""3"",""1"",""4"",""4"",""2"",""3"",""1"",""4"",""4"",""1"",""4"",""2"",""3"",""1"",""4"",""4"",""2"",""3"",""1"",""4"",""4"",""2""]","[1.69,1.88,2.081,2.266,2.469,2.75,3.015,3.199,3.361,3.552,3.985,4.614,4.847,5.08,5.327,5.602,5.815,6.78,7.111,7.292,7.458,7.664,7.993,8.541,8.774,9.008,9.223,9.543,9.903]",0,8,8,8,1,42314,,10,1,2020-12-29_09h05.24.744,Sequence Training,2020.1.3,Linux x86_64,60
"[""4"",""1"",""3"",""2"",""4"",""4"",""1"",""3"",""2"",""4"",""4"",""1"",""3"",""2"",""4"",""4"",""1"",""3"",""2"",""4"",""4"",""1"",""3"",""2"",""4"",""4"",""1"",""3"",""2"",""4"",""4"",""1"",""3"",""2"",""4"",""4"",""1""]","[0.715,0.927,1.264,1.475,1.69,1.943,2.148,2.379,2.558,2.775,3.039,3.224,3.462,3.654,3.855,4.089,4.353,4.623,4.812,5.023,5.275,5.49,6.035,6.228,6.439,6.697,7.041,7.618,7.839,8.068,8.335,8.585,8.983,9.184,9.404,9.64,9.848]",0,9,9,9,1,41324,,0,1,2020-12-29_09h05.24.744,Sequence Training,2020.1.3,Linux x86_64,60
"[""3"",""2"",""4"",""2"",""3"",""1"",""4"",""4"",""2"",""3"",""1"",""4"",""4"",""2"",""3"",""1"",""4"",""4"",""2"",""3"",""1"",""4"",""4"",""2"",""3"",""1"",""4"",""4"",""2"",""3"",""1"",""4"",""4"",""2"",""3"",""1"",""4""]","[0.073,0.27,0.865,1.12,1.363,1.691,1.982,2.264,2.456,2.648,2.816,3.046,3.313,3.537,3.714,3.896,4.08,4.429,4.606,4.751,4.943,5.128,5.495,5.714,5.895,6.07,6.232,6.729,6.985,7.16,7.343,7.545,8.107,9.295,9.495,9.663,9.864]",0,10,10,10,1,42314,,10,1,2020-12-29_09h05.24.744,Sequence Training,2020.1.3,Linux x86_64,60
"[""4"",""1"",""3"",""2"",""4"",""4"",""1"",""3"",""2"",""4"",""4"",""1"",""3"",""2"",""4"",""4"",""1"",""3"",""2"",""4"",""4"",""1"",""3"",""2"",""4""]","[0.82,0.999,2.141,2.364,2.784,3.3,3.532,4.771,5.03,5.346,5.647,5.92,6.262,6.554,6.826,7.143,7.414,7.726,7.978,8.247,8.558,8.826,9.15,9.378,9.661]",0,11,11,11,1,41324,,0,1,2020-12-29_09h05.24.744,Sequence Training,2020.1.3,Linux x86_64,60
"[""4"",""1"",""4"",""2"",""3"",""1"",""4"",""4"",""2"",""3"",""1"",""4"",""4"",""2"",""3"",""1"",""4"",""4"",""2"",""3"",""1"",""4"",""4"",""2"",""3"",""1"",""4"",""4"",""2"",""3"",""1"",""4"",""4"",""2"",""3"",""1"",""4"",""4"",""2"",""3""]","[0.071,0.378,1.193,1.453,1.656,2.242,2.576,2.884,3.112,3.283,3.468,3.703,4.001,4.262,4.473,4.648,4.874,5.183,5.451,5.612,5.773,5.984,6.294,6.523,6.706,6.863,7.064,7.378,7.615,7.815,7.977,8.152,8.464,8.831,9.011,9.161,9.355,9.647,9.818,9.99]",0,12,12,12,1,42314,,10,1,2020-12-29_09h05.24.744,Sequence Training,2020.1.3,Linux x86_64,60
"[""4"",""1"",""3"",""2"",""4"",""4"",""1"",""3"",""2"",""3"",""4"",""4"",""1"",""3"",""2"",""4"",""4"",""1"",""2"",""4"",""1"",""3"",""2"",""4"",""4"",""1"",""3"",""2"",""4"",""4"",""1"",""3"",""2""]","[0.697,0.905,1.442,1.671,1.938,2.258,2.492,2.771,2.94,3.186,3.308,3.86,4.069,4.504,4.818,5.052,5.32,5.568,5.851,6.65,6.852,7.139,7.322,7.556,7.8,8.016,8.227,8.436,8.672,8.954,9.15,9.714,10.003]",0,13,13,13,1,41324,,0,1,2020-12-29_09h05.24.744,Sequence Training,2020.1.3,Linux x86_64,60
"[""4"",""4"",""2"",""3"",""1"",""4"",""4"",""2"",""3"",""1"",""4"",""4"",""2"",""3"",""1"",""4"",""4"",""2"",""3"",""1"",""4"",""4"",""2"",""3"",""1"",""4"",""4"",""2"",""3"",""1"",""4"",""4"",""2"",""3"",""1"",""4"",""4"",""2"",""3"",""1"",""4"",""4"",""2""]","[0.233,0.846,1.193,1.376,1.558,1.766,2.073,2.326,2.525,2.676,2.856,3.142,3.374,3.54,3.673,3.838,4.122,4.422,4.607,4.74,4.909,5.188,5.404,5.557,5.754,5.905,6.24,6.471,6.637,6.805,7.036,7.262,7.502,7.726,7.952,8.193,8.636,9,9.185,9.319,9.506,9.718,9.914]",0,14,14,14,1,42314,,10,1,2020-12-29_09h05.24.744,Sequence Training,2020.1.3,Linux x86_64,60
"[""4"",""1"",""3"",""2"",""4"",""4"",""1"",""3"",""2"",""4"",""4"",""1"",""3"",""2"",""4"",""4"",""4"",""3"",""2"",""4"",""4"",""1"",""3"",""2"",""4"",""4"",""1"",""3"",""2"",""4"",""4"",""1"",""3"",""2"",""4""]","[0.628,0.826,1.224,1.503,1.782,2.041,2.309,2.67,2.903,3.265,3.554,3.786,4.085,4.267,4.536,4.805,5.053,5.368,5.715,5.986,6.261,6.514,6.888,7.067,7.304,7.573,7.78,8.081,8.28,8.497,8.771,8.98,9.395,9.628,9.898]",0,15,15,15,1,41324,,10,1,2020-12-29_09h05.24.744,Sequence Training,2020.1.3,Linux x86_64,60
"[""4"",""1"",""1"",""4"",""1"",""3"",""2"",""4"",""4"",""1"",""3"",""2"",""4"",""4"",""1"",""3"",""2"",""4"",""4"",""1"",""3"",""2"",""3"",""4"",""4"",""1"",""3"",""2"",""4"",""4"",""1"",""3"",""2"",""4"",""4"",""1"",""3"",""2"",""4"",""4""]","[0.561,0.805,0.923,1.643,1.844,2.088,2.288,2.495,2.737,2.92,3.122,3.31,3.505,3.737,3.954,4.237,4.412,4.632,4.856,5.034,5.285,5.489,5.672,5.835,6.387,6.575,6.835,7.068,7.286,7.518,7.717,8.03,8.219,8.449,8.724,8.971,9.324,9.549,9.758,10.012]",0,16,16,16,1,41324,,10,1,2020-12-29_09h05.24.744,Sequence Training,2020.1.3,Linux x86_64,60
"[""4"",""1"",""3"",""2"",""4"",""4"",""1"",""3"",""2"",""4"",""4"",""1"",""3"",""2"",""4"",""4"",""1"",""3"",""2"",""4"",""4"",""1"",""3"",""2"",""4"",""4"",""1"",""3"",""2"",""4"",""4"",""1"",""3"",""2"",""4"",""4"",""1"",""3""]","[0.581,0.814,1.109,1.398,1.644,1.909,2.164,2.421,2.639,2.857,3.122,3.338,3.648,3.837,4.055,4.318,4.544,4.789,5.004,5.204,5.47,5.686,6.042,6.243,6.488,6.741,6.935,7.217,7.417,7.614,7.874,8.072,8.591,8.789,9.016,9.283,9.691,9.999]",0,17,17,17,1,41324,,10,1,2020-12-29_09h05.24.744,Sequence Training,2020.1.3,Linux x86_64,60
"[""4"",""1"",""3"",""2"",""4"",""4"",""1"",""3"",""2"",""4"",""4"",""1"",""3"",""2"",""4"",""4"",""1"",""2"",""1"",""3"",""2"",""4"",""4"",""1"",""3"",""2"",""4"",""4"",""1"",""3"",""2"",""4"",""4"",""1"",""3"",""2"",""4"",""4"",""1""]","[0.602,0.801,1.031,1.248,1.453,1.691,1.917,2.12,2.323,2.516,2.733,2.945,3.213,3.386,3.596,3.829,4.051,5.06,5.301,5.561,5.741,5.928,6.175,6.358,6.627,6.827,7.029,7.262,7.478,7.876,8.125,8.342,8.576,8.749,9.027,9.212,9.407,9.643,9.865]",0,18,18,18,1,41324,,10,1,2020-12-29_09h05.24.744,Sequence Training,2020.1.3,Linux x86_64,60
"[""4"",""1"",""3"",""2"",""4"",""4"",""1"",""2"",""4"",""4"",""1"",""3"",""2"",""4"",""4"",""1"",""3"",""2"",""4"",""1"",""3"",""2"",""4"",""4"",""1"",""3"",""2"",""4"",""4"",""1"",""3"",""2"",""4"",""4"",""1"",""3"",""2"",""4""]","[0.646,0.828,1.071,1.287,1.487,1.736,1.951,2.377,2.582,2.79,3.001,3.191,3.384,3.585,3.809,4.008,4.289,4.433,5.138,5.307,5.616,5.798,6.016,6.232,6.399,6.663,6.795,7.082,7.932,8.117,8.444,8.631,8.829,9.063,9.28,9.526,9.679,9.894]",0,19,19,19,1,41324,,10,1,2020-12-29_09h05.24.744,Sequence Training,2020.1.3,Linux x86_64,60
"[""4"",""1"",""3"",""2"",""4"",""4"",""1"",""3"",""2"",""4"",""4"",""1"",""3"",""2"",""4"",""4"",""1"",""3"",""2"",""4"",""4"",""1"",""3"",""2"",""4"",""4"",""1"",""3"",""2"",""4"",""4"",""1"",""4"",""3"",""2"",""4"",""4"",""1"",""3""]","[0.651,0.832,1.062,1.241,1.463,1.696,1.876,2.11,2.292,2.517,2.743,2.97,3.204,3.39,3.608,3.825,4.009,4.36,4.592,4.823,5.056,5.264,5.56,5.761,5.96,6.191,6.392,6.708,6.895,7.089,7.342,7.52,7.876,8.171,8.529,8.793,9.222,9.486,9.818]",0,20,20,20,1,41324,,10,1,2020-12-29_09h05.24.744,Sequence Training,2020.1.3,Linux x86_64,60
"[""4"",""1"",""3"",""2"",""4"",""4"",""1"",""3"",""2"",""4"",""4"",""1"",""3"",""2"",""4"",""4"",""1"",""3"",""2"",""4"",""4"",""1"",""3"",""2"",""4"",""4"",""1"",""3"",""2"",""4"",""4"",""1"",""3"",""2"",""4"",""4"",""1"",""3"",""2""]","[1.235,1.421,1.687,1.871,2.087,2.338,2.63,2.916,3.108,3.32,3.567,3.772,4.03,4.205,4.433,4.671,4.854,5.184,5.373,5.633,5.906,6.106,6.52,6.712,6.921,7.164,7.33,7.615,7.786,8.001,8.24,8.463,8.762,8.928,9.137,9.362,9.562,9.787,9.97]",0,21,21,21,1,41324,,0,1,2020-12-29_09h05.24.744,Sequence Training,2020.1.3,Linux x86_64,60
