Key_Response.keys,Key_Response.rt,trials.thisRepN,trials.thisTrialN,trials.thisN,trials.thisIndex,trials.ran,Sequences,Repeat,BreakTime,session,date,expName,psychopyVersion,OS,frameRate
"[""4"",""1"",""3"",""2"",""4"",""4"",""1"",""3"",""2"",""4"",""4"",""1""]","[1.326,1.658,3.026,3.71,4.046,5.624,6.069,7.338,7.601,7.83,8.502,9.023]",0,0,0,0,1,41324,,10,1,2020-12-29_11h38.49.743,Sequence Training,2020.1.3,Win32,60
"[""4"",""1"",""3"",""2"",""4"",""4"",""1"",""3"",""2"",""4"",""4"",""1"",""3"",""2"",""4"",""4"",""1"",""3""]","[0.92,1.416,2.351,2.528,2.805,3.566,4.115,4.651,4.874,5.124,5.674,6.505,6.822,7.358,7.762,8.31,9.352,9.683]",0,1,1,1,1,41324,,10,1,2020-12-29_11h38.49.743,Sequence Training,2020.1.3,Win32,60
"[""4"",""1"",""3"",""2"",""4"",""4"",""1"",""3"",""2"",""4"",""4"",""1"",""3"",""2"",""4""]","[1.017,1.585,2.029,2.72,3.024,3.979,4.528,5.775,5.994,6.257,6.927,7.681,8.045,8.929,9.226]",0,2,2,2,1,41324,,10,1,2020-12-29_11h38.49.743,Sequence Training,2020.1.3,Win32,60
"[""4"",""1"",""3"",""2"",""4"",""4"",""1"",""3"",""2"",""4"",""4"",""1"",""3"",""2"",""4"",""4"",""1"",""3"",""2"",""4"",""4""]","[0.87,1.395,1.668,2.338,2.693,3.147,3.62,4.344,4.599,4.877,5.249,5.774,6.342,6.584,6.876,7.194,7.657,8.738,8.99,9.329,9.644]",0,3,3,3,1,41324,,10,1,2020-12-29_11h38.49.743,Sequence Training,2020.1.3,Win32,60
"[""4"",""1"",""3"",""2"",""4"",""4"",""1"",""2"",""3"",""2"",""4"",""4"",""1"",""3"",""2"",""4"",""4""]","[0.499,0.785,1.564,1.861,2.096,2.392,2.829,3.286,5.905,6.368,6.611,6.991,7.757,8.107,8.829,9.124,9.416]",0,4,4,4,1,41324,,30,1,2020-12-29_11h38.49.743,Sequence Training,2020.1.3,Win32,60
"[""4"",""1"",""3"",""2"",""4"",""4"",""1"",""3"",""2"",""4"",""4"",""1"",""3"",""2"",""4"",""4"",""1"",""3"",""2"",""4"",""4"",""1"",""3"",""2"",""4"",""4""]","[0.664,1.419,1.706,1.941,2.534,2.813,3.333,3.619,3.842,4.368,4.597,5.024,5.517,5.85,6.373,6.637,7.053,7.454,7.696,7.971,8.263,8.828,9.223,9.439,9.714,9.971]",0,5,5,5,1,41324,,0,1,2020-12-29_11h38.49.743,Sequence Training,2020.1.3,Win32,60
"[""4"",""2"",""3"",""1"",""4"",""4"",""2"",""3"",""1"",""4"",""4"",""2"",""3"",""1"",""4"",""4"",""2"",""3"",""1"",""4"",""4""]","[1.176,1.772,2.017,2.559,3.002,3.285,3.902,4.132,4.517,4.823,5.177,6.272,6.481,6.985,7.396,7.812,8.463,8.725,9.313,9.676,9.947]",0,6,6,6,1,42314,,10,1,2020-12-29_11h38.49.743,Sequence Training,2020.1.3,Win32,60
"[""4"",""1"",""3"",""2"",""4"",""4"",""1"",""3"",""2"",""4"",""4"",""1"",""3"",""2"",""4"",""4"",""1"",""3"",""2"",""4"",""4"",""1""]","[0.751,1.356,1.67,2.235,2.551,2.985,3.459,3.774,4.069,4.516,4.886,5.521,5.775,6.056,6.486,6.822,7.372,7.973,8.202,8.69,8.975,9.691]",0,7,7,7,1,41324,,0,1,2020-12-29_11h38.49.743,Sequence Training,2020.1.3,Win32,60
"[""2"",""4"",""2"",""3"",""1"",""4"",""4"",""2"",""3"",""1"",""4"",""4"",""2"",""3"",""1"",""4"",""4""]","[0.2,2.374,2.969,3.422,3.903,4.237,4.858,5.392,5.679,6.36,6.705,7.629,8.182,8.424,8.944,9.389,9.684]",0,8,8,8,1,42314,,10,1,2020-12-29_11h38.49.743,Sequence Training,2020.1.3,Win32,60
"[""4"",""1"",""3"",""2"",""4"",""4"",""1"",""3"",""2"",""4"",""4"",""1"",""3"",""2"",""4""]","[0.839,1.333,1.617,1.987,2.457,2.737,3.105,4.927,5.206,5.473,5.705,6.289,7.499,7.993,8.314]",0,9,9,9,1,41324,,0,1,2020-12-29_11h38.49.743,Sequence Training,2020.1.3,Win32,60
"[""4"",""2"",""3"",""1"",""4"",""4"",""2"",""3"",""1"",""4"",""4"",""2"",""3"",""1"",""4"",""4"",""2"",""3"",""1""]","[0.066,1.485,1.752,2.301,2.721,3.736,4.324,4.584,5.139,5.503,5.907,6.507,6.774,7.192,7.556,8.38,8.959,9.347,9.748]",0,10,10,10,1,42314,,10,1,2020-12-29_11h38.49.743,Sequence Training,2020.1.3,Win32,60
"[""4"",""1"",""3"",""2"",""4"",""4"",""1"",""3"",""2"",""4"",""4"",""1"",""3""]","[1.082,1.563,1.906,3.721,4.092,5.077,5.564,5.889,8.254,8.559,9.31,9.731,10.011]",0,11,11,11,1,41324,,0,1,2020-12-29_11h38.49.743,Sequence Training,2020.1.3,Win32,60
"[""4"",""2"",""3"",""1"",""4"",""4"",""2"",""3"",""1"",""4"",""4"",""2"",""3"",""1"",""4"",""4""]","[1.35,2.244,2.54,3.185,3.558,4.546,5.01,5.222,5.946,6.322,7.12,7.763,7.973,8.574,8.963,9.763]",0,12,12,12,1,42314,,10,1,2020-12-29_11h38.49.743,Sequence Training,2020.1.3,Win32,60
"[""4"",""1"",""3"",""2"",""4"",""4"",""1"",""3"",""2"",""4"",""4"",""1"",""3"",""2"",""4"",""4"",""1""]","[0.857,1.435,1.735,2.331,2.658,3.364,3.837,4.233,4.922,5.268,6.074,6.577,7.375,7.658,7.895,8.863,9.33]",0,13,13,13,1,41324,,0,1,2020-12-29_11h38.49.743,Sequence Training,2020.1.3,Win32,60
"[""3"",""4"",""2"",""3"",""1"",""4"",""4"",""2"",""3"",""1"",""4"",""4"",""2"",""3"",""1"",""4"",""4"",""2"",""3"",""1"",""4""]","[0.165,2.469,3.084,3.269,3.841,4.111,4.44,5.096,5.33,5.894,6.181,6.513,7.107,7.327,7.813,8.085,8.431,8.963,9.218,9.624,9.98]",0,14,14,14,1,42314,,10,1,2020-12-29_11h38.49.743,Sequence Training,2020.1.3,Win32,60
"[""4"",""1"",""3"",""2"",""4"",""4"",""1"",""3"",""2"",""4"",""4"",""1"",""3"",""2"",""4""]","[0.887,1.386,2.101,2.521,2.854,3.589,4.01,5.09,5.694,6.115,6.83,7.328,8.296,8.867,9.151]",0,15,15,15,1,41324,,10,1,2020-12-29_11h38.49.743,Sequence Training,2020.1.3,Win32,60
"[""4"",""1"",""3"",""2"",""4"",""4"",""1"",""3"",""2"",""4"",""4"",""1"",""3"",""2"",""4"",""4"",""1"",""3"",""2"",""4"",""4""]","[0.803,1.395,2.187,2.421,2.654,3.219,3.674,4.003,4.323,4.797,5.19,5.569,5.997,6.228,6.49,6.925,7.244,7.775,8.005,9.343,9.682]",0,16,16,16,1,41324,,10,1,2020-12-29_11h38.49.743,Sequence Training,2020.1.3,Win32,60
"[""4"",""1"",""3"",""2"",""4"",""4"",""1"",""3"",""2"",""4"",""4"",""1"",""3"",""2"",""4"",""4"",""1"",""3"",""2"",""4"",""4"",""1"",""3"",""2"",""4""]","[0.848,1.392,1.824,2.287,2.605,2.871,3.174,3.617,3.848,4.155,4.509,4.815,5.288,5.509,6.095,6.626,6.953,7.689,7.856,8.126,8.48,8.794,9.242,9.46,9.761]",0,17,17,17,1,41324,,10,1,2020-12-29_11h38.49.743,Sequence Training,2020.1.3,Win32,60
"[""4"",""1"",""3"",""2"",""4"",""4"",""1"",""3"",""2"",""4"",""4"",""1"",""3"",""2"",""4"",""4"",""1"",""3"",""2"",""4"",""4"",""1"",""3"",""2"",""4""]","[0.847,1.365,1.65,1.935,2.324,2.633,3.017,3.823,4.007,4.243,4.538,4.83,5.235,5.435,5.676,5.988,6.303,6.653,6.852,7.095,8.245,8.634,9.105,9.302,9.957]",0,18,18,18,1,41324,,10,1,2020-12-29_11h38.49.743,Sequence Training,2020.1.3,Win32,60
"[""4"",""1"",""3"",""2"",""4"",""4"",""1"",""3"",""2"",""4"",""4"",""1"",""3"",""2"",""4"",""4"",""1"",""3"",""2"",""4"",""4"",""1"",""3"",""2""]","[0.833,1.403,1.752,1.994,2.276,2.548,3.136,3.476,3.684,3.937,4.254,4.545,5.181,5.391,5.833,6.175,6.541,6.948,7.141,7.426,7.74,8.31,9.361,9.743]",0,19,19,19,1,41324,,10,1,2020-12-29_11h38.49.743,Sequence Training,2020.1.3,Win32,60
"[""4"",""1"",""3"",""2"",""4"",""4"",""1"",""3"",""2"",""4"",""4"",""1"",""3"",""2"",""4"",""4"",""1"",""3"",""2""]","[0.786,1.277,1.76,2.125,2.485,2.767,3.572,3.942,4.195,4.708,5.046,5.793,6.281,6.79,7.094,8.01,8.461,9.45,9.722]",0,20,20,20,1,41324,,10,1,2020-12-29_11h38.49.743,Sequence Training,2020.1.3,Win32,60
"[""4"",""1"",""3"",""2"",""4"",""4"",""1"",""3"",""2"",""4"",""4"",""1"",""3"",""2"",""4"",""4"",""1"",""3"",""2""]","[2.164,2.536,2.847,3.089,3.555,3.792,4.245,4.555,4.793,5.224,5.689,6.343,6.664,7.867,8.147,8.476,9.133,9.443,9.776]",0,21,21,21,1,41324,,0,1,2020-12-29_11h38.49.743,Sequence Training,2020.1.3,Win32,60
