Key_Response.keys,Key_Response.rt,trials.thisRepN,trials.thisTrialN,trials.thisN,trials.thisIndex,trials.ran,Sequences,Repeat,BreakTime,session,date,expName,psychopyVersion,OS,frameRate
"[""4"",""1"",""3"",""2"",""4"",""4"",""1"",""3"",""2"",""4"",""4""]","[1.876,2.628,3.246,3.495,4.485,6.302,7.343,7.822,8.341,9.077,9.831]",0,0,0,0,1,41324,,10,1,2020-10-12_14h36.46.349,Sequence Training,2020.1.3,Win32,60
"[""4"",""1"",""3"",""2"",""4"",""4"",""1"",""3"",""2"",""4"",""4"",""1"",""3"",""2"",""4"",""4"",""1"",""3"",""2"",""4""]","[1.019,1.603,1.953,2.336,2.621,3.285,3.891,4.443,4.842,5.344,5.821,6.146,6.571,6.952,7.505,8.001,8.368,8.86,9.269,9.937]",0,1,1,1,1,41324,,10,1,2020-10-12_14h36.46.349,Sequence Training,2020.1.3,Win32,60
"[""4"",""1"",""3"",""2"",""4"",""4"",""1"",""3"",""2"",""4"",""4"",""1"",""3"",""2"",""4"",""4"",""1"",""3"",""2"",""4"",""4"",""1""]","[1.017,1.404,1.765,2.149,2.568,3.051,3.486,4.184,4.514,4.942,5.34,5.675,5.993,6.275,6.642,7.182,7.583,7.98,8.381,8.712,9.264,9.638]",0,2,2,2,1,41324,,10,1,2020-10-12_14h36.46.349,Sequence Training,2020.1.3,Win32,60
"[""4"",""1"",""3"",""2"",""4"",""4"",""1"",""3"",""2"",""4"",""4"",""1"",""3"",""2"",""4"",""4"",""1"",""3"",""2"",""4"",""4"",""1"",""3"",""2"",""4"",""4"",""1"",""3"",""2""]","[0.691,1.078,1.396,1.662,1.946,2.376,2.635,2.911,3.193,3.686,4.017,4.367,4.65,4.945,5.356,5.638,5.904,6.273,6.607,7.095,7.448,7.816,8.113,8.428,8.68,9.079,9.351,9.697,9.936]",0,3,3,3,1,41324,,10,1,2020-10-12_14h36.46.349,Sequence Training,2020.1.3,Win32,60
"[""4"",""1"",""3"",""2"",""4"",""4"",""1"",""3"",""2"",""4"",""4"",""1"",""3"",""2"",""4"",""4"",""1"",""3"",""2"",""4"",""4"",""1"",""3"",""2"",""4"",""4"",""1"",""3"",""2"",""4""]","[0.794,1.111,1.407,1.645,2.146,2.986,3.277,3.52,3.783,4.151,4.807,5.158,5.403,5.616,5.817,6.184,6.407,6.695,6.92,7.159,7.47,7.679,7.913,8.178,8.411,8.695,8.926,9.228,9.48,9.831]",0,4,4,4,1,41324,,30,1,2020-10-12_14h36.46.349,Sequence Training,2020.1.3,Win32,60
"[""4"",""1"",""3"",""2"",""4"",""4"",""1"",""3"",""2"",""4"",""4"",""1"",""3"",""2"",""4"",""4"",""1"",""3"",""2"",""4"",""4"",""1"",""3"",""2"",""4"",""4"",""1"",""3"",""2"",""4""]","[0.765,1.091,1.401,1.678,2.194,2.751,3.003,3.304,3.536,3.838,4.181,4.406,4.669,4.94,5.269,5.648,5.874,6.159,6.479,6.844,7.164,7.363,7.64,7.859,8.145,8.532,8.748,8.999,9.222,9.531]",0,5,5,5,1,41324,,0,1,2020-10-12_14h36.46.349,Sequence Training,2020.1.3,Win32,60
"[""4"",""2"",""3"",""1"",""4"",""4"",""2"",""3"",""1"",""4"",""4"",""2"",""3"",""1"",""4"",""4"",""2"",""3"",""1"",""4"",""4""]","[0.955,2.162,2.429,2.794,3.037,3.407,3.866,4.123,4.579,4.896,5.346,6.067,6.282,6.684,7.275,7.751,8.237,8.459,8.789,9.1,9.645]",0,6,6,6,1,42314,,10,1,2020-10-12_14h36.46.349,Sequence Training,2020.1.3,Win32,60
"[""4"",""1"",""3"",""2"",""4"",""4"",""1"",""3"",""2"",""4"",""4"",""1"",""3"",""2"",""4"",""4"",""1"",""3"",""2"",""4"",""4"",""1"",""3"",""2"",""4""]","[1.11,1.767,2.098,2.331,2.786,3.2,3.578,4.035,4.355,4.672,5.027,5.302,5.673,5.933,6.389,6.806,7.109,7.474,7.712,8.114,8.509,8.827,9.204,9.497,9.863]",0,7,7,7,1,41324,,0,1,2020-10-12_14h36.46.349,Sequence Training,2020.1.3,Win32,60
"[""4"",""4"",""2"",""3"",""1"",""4"",""4"",""2"",""3"",""1"",""4"",""4"",""2"",""3"",""1"",""4"",""4"",""2"",""3"",""1"",""4"",""4"",""2"",""3"",""1"",""4""]","[0.123,0.844,1.542,1.833,2.301,2.612,3.014,3.418,3.703,4.034,4.382,4.819,5.708,5.963,6.355,6.655,7.06,7.359,7.629,7.929,8.31,8.729,8.979,9.2,9.525,9.868]",0,8,8,8,1,42314,,10,1,2020-10-12_14h36.46.349,Sequence Training,2020.1.3,Win32,60
"[""4"",""1"",""3"",""2"",""4"",""4"",""1"",""3"",""2"",""4"",""4"",""1"",""3"",""2"",""4"",""4"",""1"",""3"",""2"",""4"",""4"",""1"",""3"",""2"",""4"",""4"",""1"",""3""]","[0.642,0.989,1.553,1.841,2.191,2.541,2.842,3.128,3.432,3.812,4.134,4.434,4.713,4.983,5.287,5.593,5.906,6.206,6.535,6.884,7.218,7.553,7.857,8.138,8.472,8.739,9.169,9.691]",0,9,9,9,1,41324,,0,1,2020-10-12_14h36.46.349,Sequence Training,2020.1.3,Win32,60
"[""4"",""2"",""3"",""1"",""4"",""4"",""2"",""3"",""1"",""4"",""4"",""2"",""3"",""1"",""4"",""4"",""2"",""3"",""1"",""4"",""4"",""2"",""3"",""1"",""4"",""4"",""2"",""3"",""1""]","[0.797,1.352,1.588,1.968,2.221,2.604,3.106,3.521,3.907,4.213,4.573,4.878,5.109,5.46,5.729,6.079,6.331,6.547,6.805,7.094,7.532,7.867,8.045,8.399,8.716,9.172,9.419,9.636,9.97]",0,10,10,10,1,42314,,10,1,2020-10-12_14h36.46.349,Sequence Training,2020.1.3,Win32,60
"[""4"",""1"",""3"",""2"",""4"",""4"",""1"",""3"",""2"",""4"",""4"",""1"",""3"",""2"",""4"",""4"",""1"",""3"",""2"",""4"",""4"",""1"",""3"",""2""]","[0.742,1.158,1.666,1.915,2.194,2.498,2.714,2.965,3.202,3.719,4.044,4.272,4.586,4.89,5.524,5.863,6.246,6.575,6.87,7.565,8.078,9.249,9.555,9.955]",0,11,11,11,1,41324,,0,1,2020-10-12_14h36.46.349,Sequence Training,2020.1.3,Win32,60
"[""4"",""2"",""3"",""1"",""4"",""4"",""2"",""3"",""1"",""4"",""4"",""2"",""3"",""1"",""4"",""4"",""2"",""3"",""4"",""4"",""2""]","[0.743,1.414,1.678,2.112,2.547,3.026,3.418,3.663,4.017,4.319,4.735,5.102,5.326,5.754,6.116,6.601,7.236,7.512,7.769,8.693,9.334]",0,12,12,12,1,42314,,10,1,2020-10-12_14h36.46.349,Sequence Training,2020.1.3,Win32,60
"[""4"",""1"",""3"",""2"",""4"",""4"",""1"",""2"",""3"",""4"",""4"",""1"",""3"",""2"",""1"",""4"",""1"",""3"",""2"",""4"",""4"",""1"",""3"",""2""]","[1.152,1.42,2.133,2.433,3.052,3.402,3.656,4.072,4.343,4.759,5.209,5.592,5.924,6.191,6.711,7.254,7.67,8.053,8.326,8.617,9.018,9.318,9.595,9.884]",0,13,13,13,1,41324,,0,1,2020-10-12_14h36.46.349,Sequence Training,2020.1.3,Win32,60
"[""4"",""4"",""2"",""3"",""1"",""4"",""4"",""2"",""3"",""1"",""4"",""4"",""2"",""3"",""1"",""4"",""4"",""2"",""3"",""1"",""4"",""4"",""2"",""3"",""1"",""4"",""4"",""2"",""3"",""1"",""4""]","[0.152,0.786,1.27,1.577,1.967,2.262,2.658,3.036,3.27,3.707,3.961,4.363,4.646,4.863,5.167,5.424,5.75,5.987,6.184,6.489,6.751,7.068,7.305,7.535,7.84,8.085,8.555,9.055,9.24,9.54,9.833]",0,14,14,14,1,42314,,10,1,2020-10-12_14h36.46.349,Sequence Training,2020.1.3,Win32,60
"[""4"",""1"",""3"",""2"",""4"",""4"",""4"",""1"",""3"",""2"",""4"",""4"",""1"",""3"",""2"",""4"",""4"",""1"",""3"",""2"",""4"",""4"",""1"",""3"",""2""]","[0.724,1.128,1.529,1.877,2.314,2.397,2.786,3.133,3.664,3.938,4.519,4.874,5.155,5.475,5.772,6.182,6.578,6.928,7.306,7.557,7.909,8.26,9.132,9.496,9.755]",0,15,15,15,1,41324,,10,1,2020-10-12_14h36.46.349,Sequence Training,2020.1.3,Win32,60
"[""4"",""1"",""3"",""2"",""4"",""4"",""1"",""3"",""2"",""4"",""4"",""1"",""3"",""2"",""4"",""4"",""1"",""3"",""2"",""4"",""4"",""1"",""3"",""2"",""4"",""4"",""1"",""3"",""2""]","[0.661,0.92,1.185,1.419,1.691,2.019,2.252,2.532,2.918,3.107,3.507,3.79,4.158,4.407,4.725,5.046,5.306,5.695,6.029,6.366,6.745,7.13,7.488,7.754,8.149,8.499,8.981,9.332,9.671]",0,16,16,16,1,41324,,10,1,2020-10-12_14h36.46.349,Sequence Training,2020.1.3,Win32,60
"[""4"",""1"",""3"",""2"",""4"",""4"",""1"",""3"",""2"",""4"",""4"",""1"",""3"",""2"",""4"",""4"",""1"",""3"",""2"",""4"",""4"",""1"",""3"",""2"",""4"",""4"",""1"",""3"",""2"",""4"",""4"",""1"",""3""]","[0.612,0.907,1.17,1.416,1.709,2.082,2.375,2.693,2.948,3.211,3.579,3.896,4.213,4.443,4.681,5.015,5.266,5.6,5.834,6.123,6.419,6.682,7.003,7.253,7.537,7.888,8.156,8.44,8.669,8.995,9.317,9.609,9.909]",0,17,17,17,1,41324,,10,1,2020-10-12_14h36.46.349,Sequence Training,2020.1.3,Win32,60
"[""4"",""1"",""3"",""2"",""4"",""4"",""1"",""3"",""2"",""4"",""4"",""1"",""3"",""2"",""4"",""4"",""1"",""3"",""2"",""4"",""4"",""1"",""3"",""2"",""4"",""4"",""1"",""3"",""2"",""4"",""4"",""1"",""3"",""2""]","[0.669,0.934,1.198,1.428,1.698,2.016,2.283,2.544,2.808,3.102,3.385,3.62,3.903,4.136,4.437,4.752,4.988,5.255,5.539,5.835,6.158,6.392,6.718,6.959,7.294,7.582,7.861,8.228,8.496,8.798,9.095,9.348,9.655,9.897]",0,18,18,18,1,41324,,10,1,2020-10-12_14h36.46.349,Sequence Training,2020.1.3,Win32,60
"[""4"",""1"",""3"",""2"",""4"",""4"",""1"",""3"",""4"",""4"",""1"",""3"",""2"",""4"",""4"",""1"",""3"",""2"",""4"",""4"",""1"",""3"",""2"",""4"",""4"",""1"",""3"",""2"",""4"",""4"",""1"",""3""]","[0.535,0.818,1.126,1.302,1.706,1.972,2.214,2.56,3.166,3.522,3.809,4.08,4.313,4.588,4.928,5.227,5.492,5.722,5.979,6.329,6.58,6.92,7.241,7.599,7.904,8.116,8.453,8.647,8.936,9.268,9.537,9.808]",0,19,19,19,1,41324,,10,1,2020-10-12_14h36.46.349,Sequence Training,2020.1.3,Win32,60
"[""4"",""1"",""3"",""2"",""4"",""4"",""1"",""3"",""2"",""4"",""4"",""1"",""3"",""2"",""4"",""4"",""1"",""3"",""2"",""4"",""4"",""1"",""3"",""2"",""4"",""4"",""1"",""3"",""2"",""4""]","[0.516,0.751,1.04,1.54,1.871,2.315,2.486,2.783,3.067,3.435,3.887,4.103,4.393,4.641,5.006,5.508,5.727,6.11,6.37,6.797,7.187,7.48,7.813,8.078,8.466,8.8,9.044,9.284,9.528,9.871]",0,20,20,20,1,41324,,10,1,2020-10-12_14h36.46.349,Sequence Training,2020.1.3,Win32,60
"[""4"",""1"",""3"",""2"",""4"",""4"",""1"",""3"",""2"",""4"",""4"",""1"",""3"",""2"",""4"",""4"",""1"",""3"",""2"",""4"",""4"",""1"",""3"",""2"",""4"",""4"",""1"",""3"",""2"",""4"",""4"",""1"",""3"",""2""]","[0.566,0.744,0.989,1.189,1.74,2.016,2.172,2.437,2.639,2.926,3.277,3.489,3.733,3.974,4.363,4.749,4.964,5.225,5.482,5.794,6.179,6.398,6.664,6.901,7.176,7.545,7.753,8.071,8.301,8.617,8.952,9.187,9.437,9.685]",0,21,21,21,1,41324,,0,1,2020-10-12_14h36.46.349,Sequence Training,2020.1.3,Win32,60
