Key_Response.keys,Key_Response.rt,trials.thisRepN,trials.thisTrialN,trials.thisN,trials.thisIndex,trials.ran,Sequences,Repeat,BreakTime,session,date,expName,psychopyVersion,OS,frameRate
"[""4"",""1"",""4"",""3"",""2"",""4"",""1"",""3"",""2"",""4"",""4"",""1""]","[0.974,1.327,2.954,4.078,4.446,6.086,6.607,7.065,7.927,8.169,9.272,9.875]",0,0,0,0,1,41324,,10,1,2020-12-29_12h40.20.365,Sequence Training,2020.1.3,MacIntel,60
"[""4"",""1"",""3"",""2"",""4"",""4"",""1"",""3"",""2"",""4"",""4"",""1"",""3"",""2"",""4"",""4"",""1"",""3"",""2"",""4"",""4""]","[1.353,1.71,2.227,2.71,3.152,3.711,4.037,4.421,4.802,5.196,5.628,5.939,6.35,6.71,7.138,7.811,8.131,8.57,8.96,9.328,9.742]",0,1,1,1,1,41324,,10,1,2020-12-29_12h40.20.365,Sequence Training,2020.1.3,MacIntel,60
"[""4"",""1"",""3"",""2"",""4"",""4"",""1"",""3"",""2"",""4"",""4"",""1"",""3"",""2"",""4"",""4"",""1"",""3""]","[1.475,2.135,2.578,2.939,3.269,3.612,3.872,4.227,4.596,4.946,5.264,5.614,6.713,7.115,7.625,8.267,8.589,9.52]",0,2,2,2,1,41324,,10,1,2020-12-29_12h40.20.365,Sequence Training,2020.1.3,MacIntel,60
"[""4"",""1"",""3"",""2"",""4"",""4"",""1"",""3"",""2"",""4"",""4"",""1"",""3"",""2"",""4"",""4"",""1"",""3"",""2"",""4"",""4"",""1"",""3"",""2""]","[0.913,1.206,1.627,2.03,2.339,2.803,3.105,3.444,3.744,4.024,4.412,4.689,5.605,5.964,6.319,6.72,7.031,7.378,8.045,8.361,8.783,9.095,9.479,9.746]",0,3,3,3,1,41324,,10,1,2020-12-29_12h40.20.365,Sequence Training,2020.1.3,MacIntel,60
"[""4"",""1"",""3"",""2"",""4"",""4"",""1"",""3"",""2"",""4"",""4"",""1"",""3"",""2"",""4"",""4"",""1"",""3"",""2"",""4"",""4"",""1"",""3"",""2"",""4""]","[0.849,1.148,1.53,1.827,2.192,2.592,2.949,3.274,3.564,3.926,4.517,4.797,5.122,5.381,5.715,6.024,6.298,6.797,7.147,7.563,7.88,8.165,8.631,9.015,9.342]",0,4,4,4,1,41324,,30,1,2020-12-29_12h40.20.365,Sequence Training,2020.1.3,MacIntel,60
"[""4"",""1"",""3"",""2"",""4"",""4"",""1"",""3"",""2"",""4"",""4"",""1"",""3"",""2"",""4"",""4"",""1"",""3"",""2"",""4"",""4"",""1"",""3"",""2"",""4"",""4"",""1"",""3""]","[0.565,0.859,1.274,1.614,1.899,2.291,2.599,2.965,3.231,3.522,3.858,4.129,4.43,4.707,5.007,5.34,5.615,5.992,6.298,6.722,7.056,7.38,7.777,8.197,8.513,8.844,9.131,9.716]",0,5,5,5,1,41324,,0,1,2020-12-29_12h40.20.365,Sequence Training,2020.1.3,MacIntel,60
"[""4"",""2"",""3"",""1"",""4"",""4"",""2"",""3"",""1"",""4"",""4"",""2"",""3"",""1"",""4"",""4"",""2"",""3"",""1""]","[1.378,1.988,2.365,2.747,3.099,3.627,4.069,4.439,4.732,5.074,5.574,6.389,6.876,7.282,7.692,8.149,8.901,9.239,9.611]",0,6,6,6,1,42314,,10,1,2020-12-29_12h40.20.365,Sequence Training,2020.1.3,MacIntel,60
"[""4"",""1"",""3"",""2"",""4"",""4"",""1"",""3"",""2"",""4"",""4"",""1"",""3"",""2"",""4"",""4"",""1"",""3"",""2"",""4"",""4"",""1"",""3"",""2""]","[1.612,1.878,2.268,2.556,2.868,3.33,3.597,4.168,4.47,4.721,5.081,5.314,5.618,5.901,6.194,6.623,6.92,7.568,8.163,8.417,8.836,9.047,9.571,9.853]",0,7,7,7,1,41324,,0,1,2020-12-29_12h40.20.365,Sequence Training,2020.1.3,MacIntel,60
"[""4"",""4"",""2"",""3"",""1"",""4"",""4"",""2"",""3"",""1"",""4"",""4"",""2"",""3"",""1"",""4"",""4"",""2"",""3"",""1"",""4"",""4"",""2""]","[0.024,0.922,1.566,1.936,2.388,2.708,3.079,3.747,4.137,4.563,4.853,5.28,5.606,6.279,6.512,6.808,7.15,7.57,7.846,8.048,8.33,9.354,9.979]",0,8,8,8,1,42314,,10,1,2020-12-29_12h40.20.365,Sequence Training,2020.1.3,MacIntel,60
"[""4"",""1"",""3"",""2"",""4"",""4"",""1"",""3"",""2"",""4"",""4"",""1"",""3"",""2"",""4"",""4"",""1"",""3"",""2"",""4"",""4""]","[0.842,1.16,1.794,2.045,2.343,2.846,3.366,3.912,4.195,4.493,4.86,5.435,6.078,6.373,7.047,7.648,8.019,8.377,8.741,9.104,9.466]",0,9,9,9,1,41324,,0,1,2020-12-29_12h40.20.365,Sequence Training,2020.1.3,MacIntel,60
"[""1"",""3"",""2"",""4"",""4"",""2"",""3"",""1"",""4"",""4"",""2"",""3"",""1"",""4"",""4"",""2"",""3"",""1"",""4"",""4"",""2""]","[0.095,0.658,0.948,1.285,2.208,3.247,3.574,3.823,4.134,4.871,5.22,5.505,5.773,6.091,6.593,6.944,7.202,7.59,8.072,8.806,9.725]",0,10,10,10,1,42314,,10,1,2020-12-29_12h40.20.365,Sequence Training,2020.1.3,MacIntel,60
"[""4"",""1"",""3"",""2"",""4"",""4"",""1"",""3"",""2"",""4"",""4"",""1"",""3"",""2"",""4"",""1"",""1""]","[0.881,1.747,2.122,2.443,2.823,3.412,3.98,4.355,4.636,4.963,5.513,5.788,6.387,6.739,7.066,7.574,9.804]",0,11,11,11,1,41324,,0,1,2020-12-29_12h40.20.365,Sequence Training,2020.1.3,MacIntel,60
"[""3"",""4"",""2"",""3"",""1"",""4"",""4"",""2"",""3"",""1"",""4"",""4"",""2"",""3"",""1"",""4"",""4"",""2"",""3""]","[0.213,2.514,3.308,3.768,4.432,4.762,5.391,5.855,6.324,6.575,6.87,7.348,7.756,8.025,8.274,8.557,9.157,9.684,9.972]",0,12,12,12,1,42314,,10,1,2020-12-29_12h40.20.365,Sequence Training,2020.1.3,MacIntel,60
"[""4"",""1"",""3"",""2"",""4"",""4"",""1"",""3"",""2"",""4"",""4"",""1"",""3"",""2"",""4"",""4"",""2"",""3"",""2"",""4""]","[0.87,1.221,1.549,1.84,2.243,3.331,3.632,3.925,4.186,4.59,5.448,5.765,6.074,6.348,6.63,7.148,7.664,8.95,9.635,9.892]",0,13,13,13,1,41324,,0,1,2020-12-29_12h40.20.365,Sequence Training,2020.1.3,MacIntel,60
"[""4"",""2"",""3"",""1"",""4"",""4"",""2"",""3"",""1"",""4"",""4"",""2"",""3"",""1"",""4"",""4"",""2"",""3"",""1"",""4"",""4"",""2"",""3""]","[0.789,1.139,1.457,1.716,2.074,2.715,3.081,3.391,3.783,4.045,4.636,4.954,5.248,5.639,5.922,6.738,7.132,7.465,7.807,8.24,9.366,9.682,9.957]",0,14,14,14,1,42314,,10,1,2020-12-29_12h40.20.365,Sequence Training,2020.1.3,MacIntel,60
"[""4"",""1"",""3"",""2"",""4"",""4"",""1"",""3"",""2"",""4"",""4"",""1"",""3"",""2"",""4"",""4"",""1"",""3"",""2"",""4"",""4"",""1""]","[0.874,1.229,1.665,2.151,2.565,2.982,3.356,3.744,4.263,4.591,5.012,5.398,5.823,6.205,6.539,6.948,7.305,7.777,8.178,8.53,9.056,9.48]",0,15,15,15,1,41324,,10,1,2020-12-29_12h40.20.365,Sequence Training,2020.1.3,MacIntel,60
"[""4"",""1"",""3"",""2"",""4"",""4"",""1"",""3"",""2"",""4"",""4"",""1"",""3"",""2"",""4"",""4"",""1"",""3"",""2"",""4"",""4"",""1"",""3"",""2"",""3"",""4"",""1""]","[0.695,1.253,1.594,1.928,2.278,2.61,2.937,3.313,3.687,3.988,4.315,4.609,4.954,5.344,5.628,5.947,6.236,6.697,7.027,7.328,7.678,7.975,8.344,8.659,8.954,9.326,9.678]",0,16,16,16,1,41324,,10,1,2020-12-29_12h40.20.365,Sequence Training,2020.1.3,MacIntel,60
"[""4"",""1"",""3"",""2"",""4"",""4"",""1"",""3"",""2"",""4"",""4"",""1"",""3"",""2"",""4"",""4"",""1"",""3"",""2"",""4"",""4"",""1"",""3"",""2"",""4"",""4"",""1"",""3""]","[0.683,1.002,1.285,1.63,1.956,2.268,2.547,3.049,3.462,3.814,4.109,4.422,4.715,5.066,5.505,5.897,6.157,6.492,6.835,7.151,7.501,7.775,8.117,8.463,8.781,9.114,9.396,9.867]",0,17,17,17,1,41324,,10,1,2020-12-29_12h40.20.365,Sequence Training,2020.1.3,MacIntel,60
"[""4"",""1"",""3"",""2"",""4"",""4"",""1"",""3"",""2"",""4"",""4"",""1"",""3"",""2"",""4"",""4"",""1"",""3"",""2"",""4"",""4"",""1"",""3"",""2"",""4"",""4"",""1"",""3"",""2"",""4"",""4"",""1""]","[0.624,0.917,1.171,1.537,1.815,2.122,2.405,2.807,3.071,3.371,3.699,3.965,4.328,4.615,4.907,5.213,5.447,5.812,6.096,6.377,6.711,6.968,7.319,7.601,7.918,8.22,8.435,8.768,9.088,9.35,9.68,9.927]",0,18,18,18,1,41324,,10,1,2020-12-29_12h40.20.365,Sequence Training,2020.1.3,MacIntel,60
"[""4"",""1"",""3"",""2"",""4"",""4"",""1"",""3"",""2"",""4"",""4"",""1"",""3"",""2"",""4"",""4"",""1"",""3"",""2"",""4"",""4"",""1"",""3"",""2"",""4""]","[0.678,0.978,1.268,1.559,1.891,2.176,2.44,2.745,3.074,3.31,3.627,3.917,4.394,4.733,5.011,5.334,6.911,7.401,7.697,8.004,8.283,8.531,8.863,9.163,9.772]",0,19,19,19,1,41324,,10,1,2020-12-29_12h40.20.365,Sequence Training,2020.1.3,MacIntel,60
"[""4"",""1"",""3"",""2"",""4"",""4"",""1"",""3"",""2"",""4"",""4"",""1"",""3"",""2"",""4"",""4"",""1"",""3"",""2"",""4"",""4"",""1"",""3"",""2"",""4"",""1"",""4"",""2""]","[0.796,1.008,1.324,1.607,1.837,2.113,2.394,2.68,2.957,3.25,3.541,3.795,4.084,4.54,4.808,5.11,5.395,5.726,5.98,6.225,6.562,6.813,7.1,7.352,7.61,7.931,8.811,9.395]",0,20,20,20,1,41324,,10,1,2020-12-29_12h40.20.365,Sequence Training,2020.1.3,MacIntel,60
"[""4"",""1"",""3"",""2"",""4"",""4"",""1"",""3"",""2"",""4"",""4"",""1"",""3"",""2"",""4"",""4"",""1"",""3"",""2"",""4"",""4"",""1"",""3"",""2"",""4"",""4"",""1"",""3"",""2"",""4""]","[0.599,0.843,1.294,1.645,1.947,2.252,2.494,2.826,3.12,3.42,3.712,3.993,4.345,4.627,4.912,5.227,5.478,5.813,6.088,6.412,6.712,7.037,7.413,7.698,8.16,8.694,9.02,9.321,9.623,9.927]",0,21,21,21,1,41324,,0,1,2020-12-29_12h40.20.365,Sequence Training,2020.1.3,MacIntel,60
