Key_Response.keys,Key_Response.rt,trials.thisRepN,trials.thisTrialN,trials.thisN,trials.thisIndex,trials.ran,Sequences,Repeat,BreakTime,session,date,expName,psychopyVersion,OS,frameRate
"[""4"",""1"",""3"",""2"",""4"",""4"",""1"",""3"",""2"",""1"",""4"",""1"",""3"",""2"",""1"",""4"",""1"",""3"",""2""]","[1.151,1.375,2.135,2.487,2.84,3.255,3.703,4.1,4.4,5.224,5.618,6.127,6.809,7.111,7.449,8.2,9.143,9.682,10.017]",0,0,0,0,1,41324,,10,1,2021-01-12_15h52.40.502,Sequence Training,2020.1.3,Win32,60
"[""4"",""1"",""3"",""2"",""4"",""4"",""1"",""3"",""2"",""4"",""4"",""1"",""3"",""2"",""4"",""4"",""1"",""3""]","[0.79,1.101,1.455,1.727,2.034,2.71,3.177,3.806,4.151,5.683,6.286,6.584,6.985,7.334,8.486,8.902,9.241,9.8]",0,1,1,1,1,41324,,10,1,2021-01-12_15h52.40.502,Sequence Training,2020.1.3,Win32,60
"[""4"",""1"",""3"",""2"",""4"",""4"",""1"",""3"",""2"",""4"",""4"",""1"",""3"",""2"",""4"",""4"",""1"",""3"",""2"",""4"",""4"",""1"",""3"",""2"",""4"",""4"",""1"",""3"",""2"",""4"",""4""]","[0.535,0.855,1.141,1.311,1.638,1.934,2.278,2.638,2.834,3.254,3.652,4.005,4.326,4.494,4.8,5.119,5.462,6.04,6.235,6.816,7.218,7.608,7.894,8.07,8.31,8.634,8.919,9.255,9.407,9.653,9.957]",0,2,2,2,1,41324,,10,1,2021-01-12_15h52.40.502,Sequence Training,2020.1.3,Win32,60
"[""4"",""1"",""3"",""2"",""4"",""4"",""1"",""3"",""2"",""4"",""4"",""1"",""3"",""2"",""4"",""4"",""1"",""3"",""2"",""4"",""4"",""1"",""3"",""2"",""4"",""4"",""1"",""3"",""2"",""4"",""4"",""1"",""3"",""2"",""4""]","[0.585,0.868,1.156,1.308,1.572,1.852,2.11,2.492,2.639,2.924,3.222,3.502,3.975,4.108,4.421,4.7,4.926,5.217,5.367,5.617,5.918,6.236,6.583,6.734,7.039,7.384,7.756,8.071,8.222,8.487,8.788,9.087,9.372,9.524,9.817]",0,3,3,3,1,41324,,10,1,2021-01-12_15h52.40.502,Sequence Training,2020.1.3,Win32,60
"[""4"",""1"",""3"",""2"",""4"",""4"",""1"",""3"",""2"",""4"",""4"",""1"",""3"",""2"",""4"",""1"",""3"",""2"",""4"",""1"",""3"",""2"",""4"",""4"",""1"",""3"",""2"",""4"",""1"",""3"",""2"",""4"",""4""]","[0.46,0.685,0.91,1.044,1.285,1.718,2.02,2.341,2.518,2.803,3.084,3.42,3.885,4.018,4.384,4.821,5.219,5.351,5.635,5.972,6.317,6.461,6.804,7.139,7.443,7.653,7.933,8.611,8.876,9.189,9.302,9.644,9.983]",0,4,4,4,1,41324,,30,1,2021-01-12_15h52.40.502,Sequence Training,2020.1.3,Win32,60
"[""4"",""1"",""3"",""2"",""4"",""4"",""1"",""3"",""2"",""4"",""4"",""1"",""3"",""2"",""4"",""4"",""1"",""3"",""2"",""4"",""4"",""1"",""3"",""2"",""4"",""4"",""1"",""3"",""2"",""4"",""1""]","[0.525,0.789,1.038,1.143,1.374,1.671,2.045,2.293,2.462,2.71,2.997,3.357,3.621,3.752,3.958,4.246,4.452,4.87,5.005,5.285,5.552,6.061,6.384,6.512,6.758,7.045,7.325,7.606,7.758,8.143,9.374]",0,5,5,5,1,41324,,0,1,2021-01-12_15h52.40.502,Sequence Training,2020.1.3,Win32,60
"[""2"",""4"",""2"",""3"",""1"",""4"",""4"",""2"",""3"",""1"",""4"",""4"",""2"",""3"",""1"",""4"",""4"",""2"",""3"",""1"",""4"",""2"",""3""]","[0.069,1.02,1.285,2.077,2.363,2.643,3.395,3.925,4.262,4.503,4.844,5.334,5.884,6.284,6.58,7.019,7.485,7.923,8.152,8.469,8.83,9.372,9.547]",0,6,6,6,1,42314,,10,1,2021-01-12_15h52.40.502,Sequence Training,2020.1.3,Win32,60
"[""4"",""1"",""3"",""2"",""4"",""4"",""1"",""3"",""2"",""4"",""4"",""1"",""3"",""2"",""4"",""4"",""1"",""3"",""2"",""4"",""4"",""1"",""3"",""2"",""4"",""4""]","[0.489,1.154,1.851,2.075,2.34,2.754,3.101,3.457,3.588,3.892,4.857,5.385,5.626,5.755,6.084,6.442,6.874,7.153,7.305,7.57,8.101,8.459,8.85,8.961,9.267,9.72]",0,7,7,7,1,41324,,0,1,2021-01-12_15h52.40.502,Sequence Training,2020.1.3,Win32,60
"[""4"",""2"",""3"",""1"",""4"",""4"",""2"",""3"",""1"",""4"",""4"",""2"",""3"",""1"",""4"",""4"",""2"",""3"",""1"",""4"",""4"",""2"",""3"",""1"",""4"",""4""]","[0.919,1.218,1.462,1.726,1.969,2.31,2.687,3.019,3.311,3.52,4.451,5.143,5.391,5.576,5.878,6.183,6.71,6.934,7.137,7.423,7.686,8.04,8.238,8.47,9.051,9.494]",0,8,8,8,1,42314,,10,1,2021-01-12_15h52.40.502,Sequence Training,2020.1.3,Win32,60
"[""4"",""1"",""3"",""2"",""4"",""4"",""1"",""3"",""2"",""1"",""4"",""4"",""1"",""3"",""2"",""4"",""4"",""1"",""3"",""2"",""4"",""4"",""1""]","[0.535,0.819,1.377,1.743,2.194,2.527,2.818,3.224,3.423,3.784,4.068,5.423,5.742,6.368,6.537,7.434,7.79,8.086,8.462,8.59,9.008,9.424,9.67]",0,9,9,9,1,41324,,0,1,2021-01-12_15h52.40.502,Sequence Training,2020.1.3,Win32,60
"[""2"",""4"",""2"",""3"",""1"",""4"",""4"",""2"",""3"",""1"",""4"",""4"",""2"",""3"",""1"",""4"",""4"",""2"",""3"",""1"",""4"",""4"",""2"",""3"",""1""]","[0.134,0.983,1.533,1.876,2.18,2.5,2.859,3.2,3.635,3.876,4.14,5.004,5.35,5.59,5.875,6.55,6.923,7.47,7.659,7.875,8.46,8.916,9.35,9.549,9.796]",0,10,10,10,1,42314,,10,1,2021-01-12_15h52.40.502,Sequence Training,2020.1.3,Win32,60
"[""4"",""1"",""3"",""2"",""4"",""4"",""1"",""3"",""2"",""1"",""4"",""4"",""1"",""3"",""2"",""4"",""4"",""1"",""3"",""2"",""4"",""4"",""1"",""3""]","[0.62,0.956,1.819,1.969,2.387,2.736,3.03,3.452,3.603,3.969,4.77,5.43,6.152,6.507,6.659,7.077,7.436,7.723,8.139,8.319,8.723,9.042,9.568,9.963]",0,11,11,11,1,41324,,0,1,2021-01-12_15h52.40.502,Sequence Training,2020.1.3,Win32,60
"[""2"",""4"",""2"",""3"",""1"",""4"",""4"",""2"",""3"",""1"",""4"",""4"",""2"",""3"",""1"",""4"",""4"",""2"",""3"",""1"",""4"",""4"",""2"",""3"",""1"",""4"",""4""]","[0.054,0.868,1.452,1.777,2.608,2.953,3.745,4.177,4.368,4.596,4.921,5.702,6.012,6.204,6.502,6.801,7.102,7.394,7.569,7.801,8.217,8.501,8.835,9.002,9.235,9.592,9.819]",0,12,12,12,1,42314,,10,1,2021-01-12_15h52.40.502,Sequence Training,2020.1.3,Win32,60
"[""4"",""1"",""3"",""2"",""4"",""4"",""1"",""3"",""2"",""4"",""4"",""1"",""3"",""2"",""4"",""4"",""1"",""3"",""2"",""4"",""4"",""1"",""2"",""2""]","[0.719,1.252,1.719,1.871,2.351,2.655,3.071,3.418,3.543,3.927,4.144,4.84,5.185,5.359,6.009,6.234,6.607,6.911,7.039,7.501,7.743,8.368,8.575,9.792]",0,13,13,13,1,41324,,0,1,2021-01-12_15h52.40.502,Sequence Training,2020.1.3,Win32,60
"[""4"",""2"",""3"",""1"",""4"",""4"",""2"",""3"",""1"",""4"",""4"",""2"",""3"",""1"",""4"",""4"",""2"",""3"",""1"",""4"",""4"",""2"",""3"",""1"",""4"",""4"",""2"",""3"",""1"",""4"",""4"",""2""]","[0.944,1.403,1.687,1.974,2.253,2.518,2.775,2.973,3.222,3.629,3.854,4.152,4.326,4.621,4.937,5.185,5.774,5.926,6.254,6.726,6.945,7.205,7.335,7.622,8.095,8.301,8.503,8.635,8.886,9.525,9.727,9.935]",0,14,14,14,1,42314,,10,1,2021-01-12_15h52.40.502,Sequence Training,2020.1.3,Win32,60
"[""4"",""1"",""2"",""2"",""4"",""4"",""1"",""3"",""2"",""4"",""4"",""1"",""3"",""2"",""4"",""4"",""1"",""3"",""2"",""4"",""4"",""1"",""3""]","[0.654,0.952,1.237,2.879,3.629,3.934,4.629,4.973,5.151,6.077,6.256,6.518,6.805,7.001,7.461,7.679,7.941,8.325,8.573,9.008,9.23,9.452,9.719]",0,15,15,15,1,41324,,10,1,2021-01-12_15h52.40.502,Sequence Training,2020.1.3,Win32,60
"[""4"",""1"",""3"",""2"",""4"",""4"",""1"",""3"",""2"",""4"",""4"",""1"",""3"",""2"",""4"",""4"",""1"",""3"",""2"",""4"",""4"",""1"",""3"",""2"",""4"",""4"",""1"",""3"",""2"",""4"",""4""]","[0.724,1.086,1.411,1.635,1.94,2.203,2.468,2.868,3.172,3.86,4.059,4.301,4.568,4.779,5.275,5.539,5.788,6.068,6.284,6.62,6.867,7.135,7.368,7.601,7.941,8.227,8.491,8.771,9.037,9.501,9.82]",0,16,16,16,1,41324,,10,1,2021-01-12_15h52.40.502,Sequence Training,2020.1.3,Win32,60
"[""4"",""1"",""3"",""2"",""4"",""4"",""1"",""3"",""2"",""4"",""4"",""1"",""3"",""2"",""4"",""4"",""1"",""3"",""2"",""4"",""4"",""1"",""3"",""2"",""4"",""4"",""1"",""3"",""2"",""4"",""4"",""1"",""3"",""2""]","[0.754,1.118,1.379,1.603,1.884,2.134,2.37,2.604,2.868,3.435,3.619,4.226,4.49,4.667,5.084,5.325,5.61,5.851,6.043,6.409,6.668,7.009,7.284,7.538,7.802,8.051,8.289,8.517,8.684,8.986,9.233,9.474,9.684,9.858]",0,17,17,17,1,41324,,10,1,2021-01-12_15h52.40.502,Sequence Training,2020.1.3,Win32,60
"[""4"",""1"",""3"",""2"",""4"",""4"",""1"",""3"",""2"",""4"",""4"",""1"",""3"",""2"",""4"",""4"",""1"",""3"",""2"",""4"",""4"",""1"",""3"",""2"",""4"",""4"",""1"",""3"",""2"",""4"",""4"",""1"",""3"",""2"",""4"",""4""]","[0.684,0.986,1.209,1.378,1.684,1.945,2.201,2.451,2.603,2.969,3.194,3.474,3.689,3.868,4.251,4.489,4.753,5.011,5.577,6.009,6.234,6.457,6.701,6.901,7.201,7.426,7.667,7.906,8.118,8.401,8.641,8.867,9.108,9.356,9.601,9.841]",0,18,18,18,1,41324,,10,1,2021-01-12_15h52.40.502,Sequence Training,2020.1.3,Win32,60
"[""4"",""1"",""3"",""2"",""4"",""4"",""1"",""3"",""2"",""4"",""4"",""1"",""3"",""2"",""4"",""4"",""1"",""3"",""2"",""4"",""4"",""1"",""3"",""2"",""4"",""4"",""1"",""3"",""2"",""4"",""4"",""1"",""3"",""2"",""4"",""4""]","[0.827,1.152,1.418,1.584,1.887,2.105,2.351,2.687,2.935,3.334,3.553,3.775,4.068,4.285,4.559,4.801,5.067,5.352,5.559,5.827,6.09,6.335,6.583,6.801,7.067,7.287,7.518,7.776,8.025,8.289,8.517,8.736,8.975,9.224,9.568,9.833]",0,19,19,19,1,41324,,10,1,2021-01-12_15h52.40.502,Sequence Training,2020.1.3,Win32,60
"[""4"",""1"",""3"",""2"",""4"",""4"",""1"",""3"",""2"",""4"",""4"",""1"",""3"",""2"",""4"",""4"",""1"",""3"",""2"",""4"",""4"",""1"",""3"",""2"",""4"",""4"",""1"",""3"",""2"",""4"",""4"",""1"",""3"",""2"",""4"",""4"",""1"",""3"",""2"",""4""]","[0.562,0.868,1.152,1.304,1.608,1.836,2.036,2.302,2.452,2.776,3.019,3.241,3.488,3.686,3.929,4.194,4.552,4.88,5.144,5.435,5.68,5.936,6.202,6.369,6.64,6.87,7.104,7.304,7.472,7.704,7.928,8.136,8.346,8.496,8.792,9.034,9.24,9.435,9.601,9.834]",0,20,20,20,1,41324,,10,1,2021-01-12_15h52.40.502,Sequence Training,2020.1.3,Win32,60
"[""4"",""4"",""1"",""3"",""2"",""4"",""4"",""1"",""3"",""2"",""4"",""4"",""1"",""3"",""2"",""4"",""4"",""1"",""3"",""2"",""4"",""4"",""1"",""3"",""2"",""4"",""4"",""1"",""3"",""2"",""4"",""4"",""1"",""3""]","[0.511,0.835,1.703,1.969,2.119,2.342,2.568,2.809,3.273,3.502,3.824,4.046,4.311,4.542,4.711,4.984,5.235,5.454,5.672,5.911,6.329,6.574,6.839,7.071,7.246,7.591,7.834,8.063,8.318,8.534,9.151,9.374,9.559,9.758]",0,21,21,21,1,41324,,0,1,2021-01-12_15h52.40.502,Sequence Training,2020.1.3,Win32,60
