Key_Response.keys,Key_Response.rt,trials.thisRepN,trials.thisTrialN,trials.thisN,trials.thisIndex,trials.ran,Sequences,Repeat,BreakTime,session,date,expName,psychopyVersion,OS,frameRate
"[""4"",""1"",""3"",""2"",""4"",""4"",""1"",""3"",""2"",""4"",""4"",""1"",""3"",""2"",""4""]","[1.287,1.678,2.453,2.804,3.253,4.475,5.42,6.337,6.72,7.056,7.563,8.188,8.792,9.179,9.588]",0,0,0,0,1,41324,,10,1,2020-12-29_11h32.31.509,Sequence Training,2020.1.3,Win32,60
"[""4"",""1"",""3"",""2"",""4"",""4"",""1"",""3"",""2"",""4"",""4"",""1"",""3"",""2"",""4"",""4"",""1"",""3"",""2""]","[1.012,1.395,1.975,2.43,2.912,3.53,3.98,4.473,4.846,5.225,5.74,6.297,6.831,7.181,7.889,8.351,8.809,9.354,9.782]",0,1,1,1,1,41324,,10,1,2020-12-29_11h32.31.509,Sequence Training,2020.1.3,Win32,60
"[""4"",""1"",""3"",""2"",""4"",""4"",""1"",""3"",""2"",""4"",""4"",""1"",""3"",""2"",""4"",""4"",""1"",""3"",""2"",""4"",""4"",""1""]","[0.758,1.062,1.426,2.36,2.992,3.433,3.867,4.267,4.767,5.108,5.494,5.909,6.317,6.604,6.944,7.358,7.835,8.252,8.619,8.969,9.347,9.736]",0,2,2,2,1,41324,,10,1,2020-12-29_11h32.31.509,Sequence Training,2020.1.3,Win32,60
"[""4"",""1"",""3"",""2"",""4"",""4"",""1"",""3"",""2"",""4"",""4"",""1"",""3"",""2"",""4"",""4"",""1"",""3"",""2"",""4"",""4"",""1"",""3"",""2"",""4"",""4""]","[0.551,0.867,1.217,1.5,1.95,2.334,3.18,3.568,3.843,4.119,4.634,4.918,5.269,5.536,5.819,6.306,6.635,7.136,7.463,7.748,8.103,8.427,8.97,9.229,9.653,10.003]",0,3,3,3,1,41324,,10,1,2020-12-29_11h32.31.509,Sequence Training,2020.1.3,Win32,60
"[""4"",""1"",""3"",""2"",""4"",""4"",""1"",""3"",""2"",""4"",""4"",""1"",""3"",""2"",""4"",""4"",""1"",""3"",""2"",""4"",""4"",""1"",""3"",""2"",""4"",""4"",""1"",""3"",""2""]","[0.692,1.014,1.388,1.672,2.228,2.547,2.833,3.166,3.446,3.743,4.121,4.365,4.709,5.004,5.305,5.638,5.883,6.264,6.555,6.827,7.139,7.373,7.745,8.026,8.388,8.717,9.043,9.492,9.808]",0,4,4,4,1,41324,,30,1,2020-12-29_11h32.31.509,Sequence Training,2020.1.3,Win32,60
"[""4"",""1"",""3"",""2"",""4"",""4"",""1"",""3"",""2"",""4"",""4"",""1"",""3"",""2"",""4"",""1"",""4"",""1"",""3"",""2"",""4"",""4"",""1"",""3"",""2"",""4""]","[0.616,0.821,1.129,1.395,1.712,2.118,2.364,2.662,2.942,3.219,3.559,3.803,4.271,4.537,4.841,5.209,6.301,6.474,7.012,7.385,8.125,8.457,8.991,9.336,9.603,9.87]",0,5,5,5,1,41324,,0,1,2020-12-29_11h32.31.509,Sequence Training,2020.1.3,Win32,60
"[""4"",""2"",""3"",""1"",""4"",""4"",""2"",""3"",""1"",""4"",""4"",""2"",""3"",""1"",""4"",""4"",""2"",""3"",""1"",""4"",""4""]","[1.562,2.002,2.375,2.72,3.043,3.603,3.969,4.41,4.792,5.157,5.603,5.958,6.356,6.736,7.07,7.526,7.905,8.287,8.937,9.289,9.727]",0,6,6,6,1,42314,,10,1,2020-12-29_11h32.31.509,Sequence Training,2020.1.3,Win32,60
"[""4"",""1"",""3"",""2"",""4"",""4"",""1"",""3"",""2"",""4"",""4"",""1"",""3"",""2"",""4"",""4"",""1"",""3"",""2"",""4"",""4"",""1""]","[0.388,0.68,1.01,1.348,1.687,2.204,3.066,3.871,4.189,4.501,5.111,5.756,6.189,6.523,6.814,7.24,7.59,8.149,8.436,9.034,9.491,9.807]",0,7,7,7,1,41324,,0,1,2020-12-29_11h32.31.509,Sequence Training,2020.1.3,Win32,60
"[""3"",""4"",""2"",""3"",""1"",""4"",""4"",""2"",""3"",""1"",""4"",""4"",""2"",""3"",""1"",""4"",""4"",""2"",""3""]","[0.167,1.635,1.992,2.82,3.118,3.435,3.915,4.553,5.047,5.344,5.703,6.203,6.581,7.053,7.365,7.77,8.435,8.893,9.922]",0,8,8,8,1,42314,,10,1,2020-12-29_11h32.31.509,Sequence Training,2020.1.3,Win32,60
"[""4"",""1"",""3"",""2"",""4"",""4"",""1"",""3"",""2"",""4"",""4"",""1"",""3"",""2"",""4"",""4"",""1"",""3"",""2"",""4"",""4"",""1"",""3""]","[0.846,0.899,1.716,2.007,2.316,2.732,3.513,3.957,4.247,4.581,5.058,5.798,6.207,6.505,6.815,7.217,7.599,8.138,8.419,8.732,9.155,9.517,9.95]",0,9,9,9,1,41324,,0,1,2020-12-29_11h32.31.509,Sequence Training,2020.1.3,Win32,60
"[""2"",""4"",""2"",""3"",""1"",""4"",""4"",""2"",""3"",""1"",""4"",""4"",""2"",""3"",""1"",""4"",""4"",""2"",""3"",""1"",""4"",""4""]","[0.188,1.118,1.536,2.285,2.769,3.114,3.612,3.956,4.653,4.977,5.322,5.786,6.095,6.674,7.121,7.454,7.949,8.395,8.8,9.105,9.491,9.897]",0,10,10,10,1,42314,,10,1,2020-12-29_11h32.31.509,Sequence Training,2020.1.3,Win32,60
"[""4"",""1"",""3"",""2"",""4"",""4"",""1"",""3"",""2"",""4"",""4"",""1"",""3"",""2"",""4"",""4"",""1"",""3"",""2"",""4"",""4"",""1"",""3"",""2""]","[0.751,1.1,1.894,2.186,2.559,2.993,3.351,3.725,4.009,4.301,4.76,5.143,5.821,6.094,6.393,6.86,7.206,7.637,7.927,8.377,8.794,9.145,9.541,9.862]",0,11,11,11,1,41324,,0,1,2020-12-29_11h32.31.509,Sequence Training,2020.1.3,Win32,60
"[""4"",""4"",""2"",""3"",""1"",""4"",""4"",""2"",""3"",""1"",""4"",""4"",""2"",""3"",""1"",""4"",""4"",""2"",""3"",""1"",""4""]","[0.297,1.104,1.403,1.768,2.1,2.424,2.907,3.249,4.085,4.399,4.749,5.299,6.205,6.545,6.87,7.18,7.733,8.15,8.718,9.112,9.48]",0,12,12,12,1,42314,,10,1,2020-12-29_11h32.31.509,Sequence Training,2020.1.3,Win32,60
"[""4"",""1"",""3"",""2"",""4"",""4"",""1"",""3"",""2"",""4"",""4"",""1"",""3"",""2"",""4"",""4"",""1"",""3"",""2"",""4"",""4"",""1"",""3"",""2"",""4""]","[0.542,0.849,1.293,1.569,1.896,2.315,2.571,3.092,3.376,3.678,4.084,4.394,4.844,5.111,5.428,5.828,6.144,6.62,6.902,7.257,7.795,8.228,8.735,9.012,9.362]",0,13,13,13,1,41324,,0,1,2020-12-29_11h32.31.509,Sequence Training,2020.1.3,Win32,60
"[""4"",""2"",""3"",""1"",""4"",""4"",""2"",""3"",""1"",""4"",""4"",""2"",""3"",""1"",""4"",""4"",""2"",""4"",""3"",""1"",""4"",""4"",""2""]","[0.601,0.986,1.284,1.635,1.968,2.492,2.952,3.302,3.577,3.919,4.362,4.709,5.07,5.357,5.696,6.292,7.02,7.57,8.137,8.604,8.898,9.288,9.972]",0,14,14,14,1,42314,,10,1,2020-12-29_11h32.31.509,Sequence Training,2020.1.3,Win32,60
"[""4"",""1"",""3"",""2"",""4"",""4"",""1"",""3"",""2"",""4"",""4"",""1"",""3"",""2"",""4"",""4"",""1"",""3"",""2"",""4"",""4"",""1"",""3"",""2"",""4""]","[0.462,0.776,1.291,1.568,1.86,2.28,2.594,2.997,3.244,3.547,3.947,4.225,4.604,4.889,5.492,5.946,6.226,7.149,7.426,7.697,8.097,8.345,8.794,9.11,9.548]",0,15,15,15,1,41324,,10,1,2020-12-29_11h32.31.509,Sequence Training,2020.1.3,Win32,60
"[""4"",""1"",""3"",""2"",""4"",""4"",""1"",""3"",""2"",""4"",""4"",""1"",""3"",""2"",""4"",""4"",""1"",""3"",""2"",""4"",""4"",""1"",""3"",""2"",""4""]","[0.605,0.9,1.215,1.453,1.766,2.203,2.465,3.161,3.433,3.733,4.149,4.426,4.844,5.093,5.421,5.845,6.208,7.218,7.487,7.776,8.169,8.574,9.014,9.284,9.814]",0,16,16,16,1,41324,,10,1,2020-12-29_11h32.31.509,Sequence Training,2020.1.3,Win32,60
"[""4"",""1"",""3"",""2"",""4"",""4"",""1"",""3"",""2"",""4"",""4"",""1"",""3"",""2"",""4"",""4"",""1"",""3"",""2"",""4"",""4"",""2""]","[0.564,0.894,1.283,1.565,1.828,2.208,2.659,3.285,3.536,3.828,4.218,4.485,4.982,5.193,5.517,5.933,6.192,6.767,7,7.316,8.3,8.727]",0,17,17,17,1,41324,,10,1,2020-12-29_11h32.31.509,Sequence Training,2020.1.3,Win32,60
"[""4"",""1"",""3"",""2"",""4"",""4"",""1"",""3"",""2"",""4"",""4"",""1"",""3"",""2"",""4"",""4"",""1"",""3"",""2"",""4"",""4"",""1"",""3"",""2"",""4"",""4""]","[0.679,0.945,1.301,1.565,1.88,2.278,2.595,3.195,3.461,3.795,4.21,4.501,4.917,5.211,5.551,6.244,6.565,7.062,7.328,7.645,8.048,8.351,8.729,9.029,9.345,9.77]",0,18,18,18,1,41324,,10,1,2020-12-29_11h32.31.509,Sequence Training,2020.1.3,Win32,60
"[""4"",""1"",""3"",""2"",""4"",""4"",""1"",""3"",""2"",""4"",""4"",""1"",""3"",""2"",""4"",""4"",""1"",""3"",""2"",""4"",""4"",""1"",""4""]","[0.546,0.795,1.112,1.382,1.674,2.029,2.398,2.765,3.031,3.338,3.796,4.08,4.469,4.747,5.039,5.497,5.924,6.348,6.581,6.898,7.385,7.668,8.171]",0,19,19,19,1,41324,,10,1,2020-12-29_11h32.31.509,Sequence Training,2020.1.3,Win32,60
"[""4"",""1"",""3"",""2"",""4"",""4"",""1"",""3"",""2"",""4"",""4"",""1"",""3"",""2"",""4"",""4"",""1"",""3"",""2"",""4"",""4"",""1"",""3"",""2"",""4"",""1"",""3"",""2""]","[0.389,0.617,0.96,1.219,1.502,1.84,2.085,2.419,2.719,3.051,3.439,3.691,4.067,4.334,4.66,5.06,5.317,6.068,6.351,6.642,7.028,7.281,7.67,7.951,8.262,9.002,9.595,9.824]",0,20,20,20,1,41324,,10,1,2020-12-29_11h32.31.509,Sequence Training,2020.1.3,Win32,60
"[""4"",""1"",""3"",""2"",""4"",""4"",""1"",""3"",""2"",""4"",""4"",""1"",""3"",""2"",""4"",""4"",""1"",""3"",""2"",""4"",""4"",""1"",""3"",""2"",""4"",""4"",""1"",""3""]","[0.564,0.63,1.456,1.716,2.007,2.358,2.596,2.971,3.248,3.551,3.963,4.213,4.547,4.813,5.114,5.536,5.898,6.264,6.533,6.93,7.347,7.664,8.185,8.448,8.758,9.131,9.483,9.961]",0,21,21,21,1,41324,,0,1,2020-12-29_11h32.31.509,Sequence Training,2020.1.3,Win32,60
