Key_Response.keys,Key_Response.rt,trials.thisRepN,trials.thisTrialN,trials.thisN,trials.thisIndex,trials.ran,Sequences,Repeat,BreakTime,session,date,expName,psychopyVersion,OS,frameRate
"[""4"",""1"",""3"",""2"",""4"",""4"",""1"",""3"",""2"",""4"",""4"",""1"",""3"",""2"",""4"",""4"",""1"",""3"",""2"",""4"",""4"",""1"",""3"",""2"",""4"",""4""]","[1.114,1.432,1.726,1.916,2.148,2.648,2.928,3.345,3.504,3.743,4.168,4.495,4.859,5.09,5.299,5.76,6.117,6.98,7.087,7.336,7.708,8.199,8.791,8.91,9.13,9.494]",0,0,0,0,1,41324,,10,1,2020-10-06_17h18.57.834,Sequence Training,2020.1.3,MacIntel,60
"[""4"",""1"",""3"",""2"",""4"",""4"",""1"",""3"",""2"",""4"",""4"",""1"",""3"",""2"",""4"",""4"",""1"",""3"",""2"",""4"",""4"",""1"",""3"",""2"",""4"",""4""]","[0.958,1.307,1.704,1.788,1.998,2.476,2.827,3.242,3.347,3.647,4.032,4.446,5.197,5.372,5.602,6.037,6.451,6.935,7.151,7.434,7.849,8.355,9.044,9.228,9.453,9.855]",0,1,1,1,1,41324,,10,1,2020-10-06_17h18.57.834,Sequence Training,2020.1.3,MacIntel,60
"[""4"",""1"",""3"",""2"",""4"",""4"",""1"",""3"",""2"",""4"",""4"",""1"",""3"",""2"",""4"",""4"",""1"",""3"",""2"",""4"",""4"",""1"",""3"",""2"",""4"",""4"",""1"",""3"",""4"",""4"",""1"",""3"",""2"",""4"",""4"",""1"",""3""]","[0.571,0.869,1.232,1.354,1.53,1.865,2.119,2.589,2.741,2.868,3.211,3.536,3.781,3.924,4.043,4.461,4.774,5.161,5.267,5.47,5.797,6.074,6.366,6.536,6.608,6.929,7.165,7.452,7.733,8.008,8.268,8.558,8.668,8.843,9.21,9.532,9.844]",0,2,2,2,1,41324,,10,1,2020-10-06_17h18.57.834,Sequence Training,2020.1.3,MacIntel,60
"[""4"",""1"",""3"",""2"",""4"",""4"",""1"",""3"",""2"",""4"",""4"",""1"",""2"",""4"",""4"",""1"",""3"",""2"",""4"",""4"",""1"",""3"",""2"",""4"",""4"",""1"",""3"",""2"",""4"",""4"",""1"",""3"",""2""]","[0.782,0.958,1.198,1.326,1.468,1.773,1.985,2.295,2.407,2.558,2.835,3.093,3.481,3.621,3.966,4.375,4.926,5.059,5.478,5.869,6.242,7.484,7.562,7.792,8.235,8.518,8.832,8.911,9.065,9.335,9.595,9.879,9.985]",0,3,3,3,1,41324,,10,1,2020-10-06_17h18.57.834,Sequence Training,2020.1.3,MacIntel,60
"[""4"",""1"",""4"",""3"",""2"",""4"",""4"",""1"",""3"",""2"",""4"",""4"",""1"",""3"",""2"",""4"",""1"",""3"",""2"",""4"",""4"",""1"",""3"",""2"",""4"",""4"",""1"",""3"",""2"",""4"",""4"",""1"",""3"",""2""]","[0.655,0.889,0.991,1.838,1.917,2.042,2.372,2.566,2.889,2.991,3.193,3.449,3.678,4,4.104,4.255,5.206,5.849,5.927,6.127,6.45,6.718,7.011,7.076,7.222,7.544,7.789,8.087,8.191,8.374,8.671,8.997,9.865,9.977]",0,4,4,4,1,41324,,30,1,2020-10-06_17h18.57.834,Sequence Training,2020.1.3,MacIntel,60
"[""4"",""1"",""3"",""2"",""4"",""4"",""1"",""3"",""2"",""4"",""4"",""1"",""3"",""2"",""4"",""4"",""1"",""3"",""2"",""4"",""4"",""1"",""4"",""3"",""2"",""1"",""4"",""1""]","[1.095,1.258,1.558,1.655,1.813,2.084,2.33,2.586,2.681,2.832,3.156,3.422,3.659,3.765,3.921,4.27,5.001,5.669,5.752,5.945,6.282,6.612,6.914,7.265,7.524,7.865,9.077,9.409]",0,5,5,5,1,41324,,0,1,2020-10-06_17h18.57.834,Sequence Training,2020.1.3,MacIntel,60
"[""3"",""2"",""4"",""2"",""3"",""1"",""4"",""4"",""2"",""3"",""4"",""1"",""4"",""4"",""2"",""3"",""1"",""4"",""4"",""2"",""3"",""1"",""4""]","[0.15,0.224,1.6,2.741,2.823,3.048,3.246,4.332,4.599,4.703,4.884,5.833,6.055,6.566,6.859,6.97,7.338,7.591,8.166,8.734,8.904,9.408,9.716]",0,6,6,6,1,42314,,10,1,2020-10-06_17h18.57.834,Sequence Training,2020.1.3,MacIntel,60
"[""4"",""1"",""3"",""2"",""4"",""4"",""1"",""3"",""4"",""4"",""1"",""3"",""2"",""4"",""4"",""1"",""3"",""2"",""4"",""4"",""1"",""3"",""2"",""4"",""4"",""1""]","[0.636,0.932,1.277,1.365,1.581,1.96,2.684,3.199,3.546,3.913,4.283,4.54,4.606,4.85,5.345,5.998,6.435,6.5,6.727,7.101,7.661,8.279,8.343,8.818,9.303,9.73]",0,7,7,7,1,41324,,0,1,2020-10-06_17h18.57.834,Sequence Training,2020.1.3,MacIntel,60
"[""3"",""2"",""4"",""2"",""3"",""1"",""4"",""4"",""2"",""3"",""1"",""4"",""4"",""2"",""3"",""1"",""4"",""4"",""2"",""3"",""1""]","[0.214,0.303,2.226,3.563,4.512,4.738,5.1,5.402,5.702,5.852,6.488,6.764,7.12,7.548,7.693,7.995,8.313,8.726,9.098,9.216,9.926]",0,8,8,8,1,42314,,10,1,2020-10-06_17h18.57.834,Sequence Training,2020.1.3,MacIntel,60
"[""4"",""1"",""3"",""2"",""4"",""4"",""1"",""3"",""2"",""4"",""4"",""1"",""3"",""2"",""4"",""4"",""1"",""3"",""2"",""4"",""4"",""1"",""3"",""2"",""4""]","[1.252,1.417,1.783,1.994,2.221,2.619,3,3.446,3.729,3.99,4.364,4.889,5.511,5.711,5.925,6.284,6.596,7.231,7.479,8.423,8.792,9.039,9.421,9.589,9.767]",0,9,9,9,1,41324,,0,1,2020-10-06_17h18.57.834,Sequence Training,2020.1.3,MacIntel,60
"[""4"",""1"",""4"",""2"",""3"",""1"",""4"",""4"",""2"",""3"",""1"",""4"",""4"",""1"",""2"",""3"",""4"",""2"",""3"",""1"",""4"",""4""]","[0.049,0.436,1.159,1.766,1.903,2.3,2.496,2.961,3.323,3.447,3.781,4.024,4.432,4.74,4.948,5.118,7.519,8.796,8.979,9.253,9.465,9.839]",0,10,10,10,1,42314,,10,1,2020-10-06_17h18.57.834,Sequence Training,2020.1.3,MacIntel,60
"[""4"",""1"",""3"",""2"",""4"",""4"",""1"",""3"",""2"",""4"",""4"",""1"",""3"",""2"",""4"",""4"",""1"",""3"",""2"",""4"",""4"",""1"",""3"",""2"",""4""]","[1.889,2.584,2.817,3.01,3.175,3.477,3.765,4.36,4.576,4.752,5.076,5.562,6.094,6.261,6.416,7.042,7.429,7.801,8.137,8.336,8.704,9.169,9.608,9.837,10.022]",0,11,11,11,1,41324,,0,1,2020-10-06_17h18.57.834,Sequence Training,2020.1.3,MacIntel,60
"[""4"",""2"",""3"",""1"",""4"",""4"",""2"",""3"",""1"",""2"",""4"",""4"",""2"",""3"",""1"",""4"",""4"",""2"",""3"",""1"",""4"",""4""]","[1.087,1.601,1.841,2.102,2.367,3.208,3.534,3.71,4.094,4.144,5.03,5.598,6.107,6.214,6.52,6.735,7.219,7.97,8.069,8.36,8.516,9.726]",0,12,12,12,1,42314,,10,1,2020-10-06_17h18.57.834,Sequence Training,2020.1.3,MacIntel,60
"[""4"",""1"",""3"",""2"",""4"",""4"",""1"",""3"",""2"",""4"",""4"",""1"",""3"",""2"",""4"",""4"",""1"",""3"",""2"",""4"",""4"",""1"",""3"",""2"",""4""]","[0.777,1.431,1.746,1.937,2.174,2.455,2.772,3.263,3.523,3.857,4.152,4.85,5.183,5.382,5.667,5.943,6.926,7.478,7.911,8.209,8.495,9.096,9.418,9.65,9.874]",0,13,13,13,1,41324,,0,1,2020-10-06_17h18.57.834,Sequence Training,2020.1.3,MacIntel,60
"[""4"",""2"",""3"",""1"",""4"",""4"",""2"",""3"",""1"",""4"",""4"",""2"",""3"",""1"",""4"",""4"",""2"",""3"",""2"",""4"",""4"",""2"",""3"",""1"",""4""]","[0.095,1.444,1.7,2.297,2.537,2.943,3.3,3.458,3.818,4.073,4.407,4.78,4.865,5.216,5.457,5.883,6.263,6.386,6.969,7.804,8.494,8.958,9.107,9.512,9.73]",0,14,14,14,1,42314,,10,1,2020-10-06_17h18.57.834,Sequence Training,2020.1.3,MacIntel,60
"[""4"",""1"",""3"",""2"",""4"",""4"",""1"",""3"",""2"",""4"",""4""]","[6.948,7.454,8.053,8.162,8.304,8.546,8.757,9.248,9.355,9.526,9.82]",0,15,15,15,1,41324,,10,1,2020-10-06_17h18.57.834,Sequence Training,2020.1.3,MacIntel,60
"[""4"",""1"",""3"",""2"",""4"",""4"",""1"",""3"",""2"",""4"",""4"",""1"",""3"",""2"",""4"",""4"",""1"",""3"",""2"",""4"",""4"",""1"",""3"",""4"",""4"",""1""]","[0.803,1.14,1.447,1.524,1.715,2.01,2.334,2.852,2.935,3.152,3.483,4.141,5.225,5.325,5.544,6.059,6.655,7.047,7.116,7.286,7.676,8.2,8.549,8.803,9.26,9.724]",0,16,16,16,1,41324,,10,1,2020-10-06_17h18.57.834,Sequence Training,2020.1.3,MacIntel,60
"[""4"",""1"",""3"",""2"",""4"",""4"",""1"",""3"",""2"",""4"",""4"",""1"",""3"",""2"",""4"",""4"",""1"",""3"",""4"",""4"",""1"",""3"",""2"",""4"",""4"",""1""]","[0.803,1.109,1.413,1.486,1.677,2.032,2.325,2.862,2.941,3.445,3.804,4.095,4.596,4.633,4.903,5.299,5.693,6.354,6.677,7.026,7.694,8.104,8.142,8.574,9.022,9.601]",0,17,17,17,1,41324,,10,1,2020-10-06_17h18.57.834,Sequence Training,2020.1.3,MacIntel,60
"[""4"",""1"",""3"",""2"",""4"",""4"",""1"",""3"",""2"",""4"",""4"",""1"",""3"",""2"",""4"",""4"",""1"",""3"",""4"",""4"",""1"",""3"",""4"",""4"",""1"",""3"",""2""]","[0.526,0.901,1.256,1.32,1.652,2.05,2.393,2.707,2.78,3.091,3.52,3.825,4.217,4.284,4.619,5.202,5.555,5.902,6.346,6.773,7.169,7.529,7.955,8.708,9.267,9.673,9.712]",0,18,18,18,1,41324,,10,1,2020-10-06_17h18.57.834,Sequence Training,2020.1.3,MacIntel,60
"[""4"",""1"",""3"",""2"",""4"",""4"",""1"",""3"",""2"",""4"",""4"",""1"",""3"",""2"",""4"",""4"",""1"",""3"",""2"",""4"",""4"",""1"",""3"",""2"",""4"",""4"",""1"",""3"",""4"",""4"",""1""]","[0.663,0.95,1.215,1.288,1.485,1.771,2.013,2.319,2.388,2.589,2.879,3.183,3.677,3.783,4.093,4.465,4.7,5.095,5.164,5.397,5.753,6.099,6.636,6.709,7.009,7.355,7.736,8.39,8.877,9.195,9.557]",0,19,19,19,1,41324,,10,1,2020-10-06_17h18.57.834,Sequence Training,2020.1.3,MacIntel,60
"[""4"",""1"",""3"",""2"",""4"",""4"",""1"",""3"",""2"",""4"",""4"",""1"",""3"",""2"",""4"",""4"",""1"",""3"",""2"",""4"",""4"",""1"",""3"",""2"",""4"",""4"",""1"",""3"",""2"",""4"",""4"",""1""]","[0.583,0.954,1.304,1.394,1.569,1.856,2.108,2.446,2.512,2.731,3.014,3.276,3.848,3.92,4.184,4.488,4.785,5.224,5.285,5.545,5.896,6.24,6.657,6.761,7.209,7.611,7.887,8.288,8.388,8.673,9.117,9.406]",0,20,20,20,1,41324,,10,1,2020-10-06_17h18.57.834,Sequence Training,2020.1.3,MacIntel,60
"[""4"",""1"",""3"",""2"",""4"",""4"",""1"",""3"",""2"",""4"",""4"",""1"",""3"",""2"",""4"",""4"",""1"",""3"",""2"",""4"",""4"",""1"",""3"",""2"",""4"",""4"",""1"",""3"",""2"",""4"",""4"",""1""]","[0.62,0.986,1.455,1.611,1.757,2.083,2.357,2.695,2.799,2.968,3.268,3.549,3.982,4.063,4.269,4.547,4.87,5.485,5.593,5.767,6.287,7.154,7.522,7.558,7.826,8.195,8.477,9.015,9.073,9.349,9.694,10.003]",0,21,21,21,1,41324,,0,1,2020-10-06_17h18.57.834,Sequence Training,2020.1.3,MacIntel,60
