Key_Response.keys,Key_Response.rt,trials.thisRepN,trials.thisTrialN,trials.thisN,trials.thisIndex,trials.ran,Sequences,Repeat,BreakTime,session,date,expName,psychopyVersion,OS,frameRate
"[""4"",""1"",""3"",""2"",""4"",""4"",""1"",""2"",""4"",""4"",""1"",""3""]","[2.538,3.209,3.743,4.39,4.926,6.052,7.15,7.62,8.245,8.696,9.391,9.919]",0,0,0,0,1,41324,,10,1,2021-01-12_16h58.53.492,Sequence Training,2020.1.3,Win32,60
"[""4"",""2"",""3"",""2"",""4"",""4"",""1"",""3"",""2"",""4"",""4"",""1"",""3"",""2"",""4""]","[2.527,3.09,3.823,4.592,4.989,7.096,7.231,7.506,7.622,7.873,8.913,9.101,9.437,9.599,9.844]",0,1,1,1,1,41324,,10,1,2021-01-12_16h58.53.492,Sequence Training,2020.1.3,Win32,60
"[""4"",""1"",""3"",""2"",""4"",""4"",""1"",""3"",""2"",""4"",""4"",""1"",""3"",""2"",""4""]","[2.246,2.736,3.521,3.808,3.95,5.241,6.054,6.268,6.48,6.869,8.068,8.523,8.855,9.055,9.34]",0,2,2,2,1,41324,,10,1,2021-01-12_16h58.53.492,Sequence Training,2020.1.3,Win32,60
"[""4"",""2"",""3"",""2"",""4"",""4"",""1"",""3"",""2"",""4"",""4"",""1"",""3"",""2"",""4"",""4"",""1"",""3"",""2"",""4"",""4""]","[1.88,2.163,3.171,3.393,4.157,4.82,5.436,5.656,5.851,6.086,6.489,7.179,7.39,7.511,7.763,8.146,8.577,8.915,9.136,9.393,9.737]",0,3,3,3,1,41324,,10,1,2021-01-12_16h58.53.492,Sequence Training,2020.1.3,Win32,60
"[""4"",""1"",""3"",""2"",""4"",""1"",""3"",""2"",""4"",""4"",""1"",""3"",""2"",""4"",""4"",""1"",""3"",""2"",""3"",""4"",""1"",""3"",""2"",""4""]","[2.14,2.527,2.814,2.994,3.94,4.18,4.316,4.502,4.746,5.197,5.689,6.057,6.34,6.524,6.897,7.316,7.656,7.947,8.115,8.845,9.199,9.5,9.708,9.934]",0,4,4,4,1,41324,,30,1,2021-01-12_16h58.53.492,Sequence Training,2020.1.3,Win32,60
"[""4"",""1"",""3"",""2"",""4"",""4"",""1""]","[7.349,8.243,8.662,8.757,8.967,9.287,9.692]",0,5,5,5,1,41324,,0,1,2021-01-12_16h58.53.492,Sequence Training,2020.1.3,Win32,60
"[""2"",""3"",""4"",""4"",""2"",""3"",""1"",""4"",""4"",""1"",""3"",""2"",""4"",""4"",""1"",""3"",""2""]","[0.146,0.443,0.639,3.261,4.919,6.293,6.66,7.189,7.449,7.793,8.134,8.33,8.574,8.858,9.345,9.637,9.801]",0,6,6,6,1,42314,,10,1,2021-01-12_16h58.53.492,Sequence Training,2020.1.3,Win32,60
"[""4"",""1"",""3"",""2"",""4"",""4"",""1"",""3"",""2"",""4"",""4"",""1"",""3"",""2"",""4"",""4"",""1"",""3"",""2"",""4"",""4"",""1"",""2"",""4""]","[1.844,2.249,2.588,2.771,3.043,3.376,3.753,4.147,4.319,4.598,4.908,5.314,5.625,5.83,6.088,6.383,6.881,7.226,7.506,7.662,8.215,8.913,9.535,9.748]",0,7,7,7,1,41324,,0,1,2021-01-12_16h58.53.492,Sequence Training,2020.1.3,Win32,60
"[""4"",""2"",""3"",""1"",""4"",""4"",""2"",""3"",""4"",""4"",""2"",""3"",""1"",""4"",""4""]","[0.103,2.638,3.923,4.161,4.699,5.378,6.418,6.605,7.384,7.527,8.325,8.578,8.831,9.23,9.645]",0,8,8,8,1,42314,,10,1,2021-01-12_16h58.53.492,Sequence Training,2020.1.3,Win32,60
"[""4"",""1"",""2"",""4"",""4"",""1"",""3"",""2"",""4"",""4"",""1"",""3"",""2"",""4"",""4"",""1"",""3"",""2"",""4"",""4"",""1"",""3""]","[2.471,2.914,3.562,3.82,3.998,4.652,5.114,5.56,5.615,5.999,6.297,6.795,6.965,7.184,7.395,7.85,8.204,8.385,8.685,9.017,9.591,9.958]",0,9,9,9,1,41324,,0,1,2021-01-12_16h58.53.492,Sequence Training,2020.1.3,Win32,60
"[""2"",""4"",""4"",""2"",""3"",""1"",""4"",""4"",""3"",""1"",""4"",""4"",""2"",""3"",""1"",""4"",""4"",""1""]","[0.131,0.442,1.931,2.468,2.744,2.964,3.247,3.607,4.525,4.724,5.096,5.434,7.283,7.979,8.404,8.592,9.045,9.754]",0,10,10,10,1,42314,,10,1,2021-01-12_16h58.53.492,Sequence Training,2020.1.3,Win32,60
"[""4"",""1"",""3"",""2"",""4"",""4"",""1"",""3"",""2"",""4"",""4"",""1"",""3"",""2"",""4"",""4"",""1""]","[2.17,3.287,3.753,3.984,4.17,4.417,5.433,5.927,6.13,6.389,6.659,7.163,7.446,7.629,7.93,8.264,9.042]",0,11,11,11,1,41324,,0,1,2021-01-12_16h58.53.492,Sequence Training,2020.1.3,Win32,60
"[""3"",""2"",""4"",""2"",""3"",""1"",""4"",""4"",""2"",""3"",""1"",""1"",""4"",""4"",""2""]","[0.406,0.641,3.179,3.463,3.695,3.939,4.224,4.442,4.696,4.97,5.231,8.324,8.61,9.622,9.965]",0,12,12,12,1,42314,,10,1,2021-01-12_16h58.53.492,Sequence Training,2020.1.3,Win32,60
"[""4"",""1"",""3"",""4"",""4"",""1"",""3"",""4"",""4"",""4"",""1""]","[2.537,3.711,4.797,4.895,5.121,6.333,7.117,7.212,8.84,9.087,9.538]",0,13,13,13,1,41324,,0,1,2021-01-12_16h58.53.492,Sequence Training,2020.1.3,Win32,60
"[""3"",""2"",""4"",""4"",""2"",""3"",""1"",""4"",""2"",""3"",""1"",""4"",""4"",""2"",""3"",""1""]","[0.124,0.432,0.652,2.135,2.399,2.645,4.838,5.298,6.84,7.146,7.251,7.909,8.153,8.936,9.526,9.84]",0,14,14,14,1,42314,,10,1,2021-01-12_16h58.53.492,Sequence Training,2020.1.3,Win32,60
"[""4"",""1"",""3"",""2"",""4"",""4"",""1"",""3"",""2"",""4"",""4"",""1"",""3"",""2"",""4"",""4"",""1"",""3"",""2"",""4"",""4""]","[2.05,2.505,3.497,3.685,4.099,4.531,5.001,5.336,5.563,5.763,6.084,6.653,6.989,7.185,7.427,7.746,8.403,8.786,8.898,9.162,9.548]",0,15,15,15,1,41324,,10,1,2021-01-12_16h58.53.492,Sequence Training,2020.1.3,Win32,60
"[""4"",""1"",""3"",""2"",""4"",""4"",""1"",""3"",""2"",""4"",""4"",""1"",""3"",""2"",""4"",""1"",""3"",""2"",""4"",""4"",""1"",""3"",""2"",""4"",""4"",""1""]","[2.174,2.498,2.828,2.998,3.246,3.535,3.913,4.219,4.399,4.584,4.86,5.301,5.578,5.75,6.385,7.086,7.359,7.621,7.805,8.219,8.586,8.82,9.025,9.204,9.489,9.849]",0,16,16,16,1,41324,,10,1,2021-01-12_16h58.53.492,Sequence Training,2020.1.3,Win32,60
"[""4"",""1"",""3"",""2"",""4"",""4"",""1"",""3"",""2"",""4"",""4"",""1"",""3"",""2"",""4"",""4"",""1"",""3"",""2"",""4"",""4"",""1"",""3"",""2"",""3""]","[2.251,2.628,2.931,3.118,3.313,3.586,3.993,4.28,4.457,4.654,4.932,5.331,5.709,5.812,6.026,6.269,6.711,7.707,7.874,8.118,8.403,9.032,9.107,9.314,9.531]",0,17,17,17,1,41324,,10,1,2021-01-12_16h58.53.492,Sequence Training,2020.1.3,Win32,60
"[""4"",""1"",""3"",""2"",""1"",""3"",""2"",""4"",""4"",""1"",""3"",""2"",""4"",""4"",""1"",""3"",""2"",""4"",""4"",""1"",""3"",""2"",""4""]","[2.452,2.886,3.408,3.986,4.454,4.792,5.16,5.421,5.705,6.136,6.504,6.721,6.941,7.265,7.692,8.08,8.25,8.477,8.796,9.341,9.484,9.681,9.952]",0,18,18,18,1,41324,,10,1,2021-01-12_16h58.53.492,Sequence Training,2020.1.3,Win32,60
"[""4"",""1"",""3"",""2"",""4"",""1"",""3"",""2"",""4"",""1"",""3"",""4"",""4"",""1"",""3"",""2"",""3"",""4"",""1"",""3"",""2"",""4"",""1""]","[2.259,2.615,2.986,3.118,3.292,4.197,4.468,4.578,4.968,5.369,5.639,6.061,6.306,6.836,7.172,7.362,7.609,7.863,8.478,8.738,8.922,9.143,9.984]",0,19,19,19,1,41324,,10,1,2021-01-12_16h58.53.492,Sequence Training,2020.1.3,Win32,60
"[""4"",""1"",""3"",""4"",""1"",""3"",""2"",""4"",""4"",""2"",""3"",""2"",""4"",""4"",""1"",""3"",""2"",""4"",""4"",""1"",""3"",""2"",""4"",""4"",""1""]","[2.222,2.516,2.824,3.531,3.785,4.235,4.298,4.474,4.729,5.044,5.597,5.784,6.018,6.421,6.636,7.195,7.413,7.661,7.975,8.356,8.73,8.914,9.131,9.412,9.792]",0,20,20,20,1,41324,,10,1,2021-01-12_16h58.53.492,Sequence Training,2020.1.3,Win32,60
"[""4"",""1"",""3"",""2"",""4"",""4"",""1"",""3"",""2"",""4"",""4"",""1"",""3"",""2"",""4"",""1"",""3"",""2"",""4"",""4"",""1"",""3"",""2"",""4"",""4"",""1""]","[2.207,2.724,2.844,3.066,3.247,3.534,3.923,4.226,4.401,4.595,4.902,5.313,5.56,5.747,6.497,6.631,7.005,7.12,7.315,7.589,8.004,8.335,8.504,8.71,9.028,9.404]",0,21,21,21,1,41324,,0,1,2021-01-12_16h58.53.492,Sequence Training,2020.1.3,Win32,60
