Key_Response.keys,Key_Response.rt,trials.thisRepN,trials.thisTrialN,trials.thisN,trials.thisIndex,trials.ran,Sequences,Repeat,BreakTime,session,date,expName,psychopyVersion,OS,frameRate
"[""4"",""1"",""3"",""2"",""4"",""4"",""1"",""3"",""2"",""4"",""4"",""1"",""3"",""2"",""4""]","[0.943,1.468,2.059,2.451,3.051,4.064,5.168,5.762,6.209,6.625,7.409,8.16,8.643,9.043,9.626]",0,0,0,0,1,41324,,10,1,2021-01-12_16h47.22.458,Sequence Training,2020.1.3,Win32,60
"[""4"",""1"",""3"",""2"",""4"",""4"",""1"",""3"",""2"",""4"",""4"",""1"",""3"",""2"",""4"",""4""]","[0.816,1.249,1.761,2.182,2.624,3.441,3.953,4.491,4.941,5.357,6.099,6.724,7.449,7.859,8.291,9.574]",0,1,1,1,1,41324,,10,1,2021-01-12_16h47.22.458,Sequence Training,2020.1.3,Win32,60
"[""4"",""1"",""3"",""2"",""4"",""4"",""1"",""3"",""2"",""4"",""4"",""1"",""3"",""2"",""4"",""4""]","[1.006,1.687,3.063,3.495,3.904,4.378,4.748,5.275,5.672,6.517,7.02,7.539,8.546,8.881,9.319,9.77]",0,2,2,2,1,41324,,10,1,2021-01-12_16h47.22.458,Sequence Training,2020.1.3,Win32,60
"[""4"",""1"",""3"",""2"",""4"",""4"",""1"",""3"",""2"",""4"",""4"",""1"",""3"",""2"",""4"",""4"",""1""]","[0.37,0.85,1.392,1.817,2.27,2.718,3.2,3.901,4.475,5.083,5.912,7.06,7.993,8.392,8.841,9.327,9.717]",0,3,3,3,1,41324,,10,1,2021-01-12_16h47.22.458,Sequence Training,2020.1.3,Win32,60
"[""4"",""1"",""3"",""2"",""4"",""4"",""1"",""3"",""2"",""4"",""4"",""1"",""3"",""2"",""4"",""4"",""1"",""3"",""2"",""4""]","[0.434,0.875,1.553,1.933,2.352,2.784,3.225,3.859,4.238,4.846,5.421,6.405,7.001,7.401,7.817,8.259,8.617,9.079,9.459,9.883]",0,4,4,4,1,41324,,30,1,2021-01-12_16h47.22.458,Sequence Training,2020.1.3,Win32,60
"[""4"",""1"",""3"",""2"",""4"",""4"",""1"",""3"",""2"",""4"",""4"",""1"",""3"",""2"",""4"",""4"",""1"",""3"",""2""]","[0.546,0.964,1.466,1.805,2.246,3.005,3.39,3.921,4.257,4.681,5.313,5.751,6.438,6.763,7.14,7.971,8.563,9.547,9.955]",0,5,5,5,1,41324,,0,1,2021-01-12_16h47.22.458,Sequence Training,2020.1.3,Win32,60
"[""4"",""2"",""3"",""1"",""4"",""4"",""2"",""3"",""1"",""4"",""4"",""2""]","[1.443,2.884,3.728,4.17,4.568,5.244,6.143,6.576,6.993,7.461,9.018,9.827]",0,6,6,6,1,42314,,10,1,2021-01-12_16h47.22.458,Sequence Training,2020.1.3,Win32,60
"[""4"",""1"",""3"",""2"",""4"",""4"",""1"",""3"",""2"",""4"",""4"",""1"",""3"",""2"",""4"",""4"",""1""]","[0.987,1.487,2.019,2.396,2.899,3.653,4.041,4.553,5.029,5.537,6.237,6.788,7.262,7.82,8.437,9.187,9.67]",0,7,7,7,1,41324,,0,1,2021-01-12_16h47.22.458,Sequence Training,2020.1.3,Win32,60
"[""3"",""4"",""2"",""3"",""1"",""4"",""4"",""2"",""3"",""1"",""4"",""4"",""2"",""3"",""1""]","[0.12,1.754,2.737,3.109,3.817,4.292,5.06,5.876,6.509,6.917,7.317,8.151,8.801,9.301,9.717]",0,8,8,8,1,42314,,10,1,2021-01-12_16h47.22.458,Sequence Training,2020.1.3,Win32,60
"[""4"",""1"",""3"",""2"",""4"",""4"",""1"",""3"",""2"",""4"",""4"",""1"",""3"",""2"",""4"",""4"",""1"",""3""]","[0.663,1.104,1.608,2.023,2.49,3.021,3.471,4.088,4.523,5.059,5.526,5.939,6.738,8.046,8.423,8.906,9.304,9.791]",0,9,9,9,1,41324,,0,1,2021-01-12_16h47.22.458,Sequence Training,2020.1.3,Win32,60
"[""2"",""4"",""2"",""3"",""1"",""4"",""4"",""2"",""3"",""1"",""4"",""4"",""2"",""3"",""1""]","[0.15,2.392,3.261,3.644,4.042,4.709,5.184,5.776,6.161,6.587,7.403,8.292,9.092,9.584,10.002]",0,10,10,10,1,42314,,10,1,2021-01-12_16h47.22.458,Sequence Training,2020.1.3,Win32,60
"[""4"",""1"",""3"",""2"",""4"",""4"",""1"",""3"",""2"",""4"",""4"",""1"",""3"",""2"",""4"",""4"",""1"",""3"",""2"",""4"",""4""]","[0.389,0.813,1.297,1.647,2.046,2.474,2.874,3.498,3.807,4.159,4.86,5.248,5.717,6.18,6.606,7.314,7.638,8.48,8.788,9.138,9.764]",0,11,11,11,1,41324,,0,1,2021-01-12_16h47.22.458,Sequence Training,2020.1.3,Win32,60
"[""4"",""2"",""3"",""1"",""4"",""4"",""2"",""3"",""1"",""4"",""4"",""2"",""3"",""1"",""4""]","[1.313,1.934,2.721,3.543,3.968,4.529,5.219,5.72,6.126,6.509,7.035,8.01,8.653,9.313,9.726]",0,12,12,12,1,42314,,10,1,2021-01-12_16h47.22.458,Sequence Training,2020.1.3,Win32,60
"[""4"",""1"",""3"",""2"",""4"",""4"",""1"",""3"",""2"",""4"",""4"",""1"",""3"",""2"",""4"",""4"",""1"",""3"",""2"",""4""]","[0.47,0.894,1.393,2.129,2.535,2.977,3.419,4.185,4.552,4.952,5.494,5.852,6.643,6.944,7.382,7.928,8.327,8.844,9.218,9.653]",0,13,13,13,1,41324,,0,1,2021-01-12_16h47.22.458,Sequence Training,2020.1.3,Win32,60
"[""4"",""2"",""3"",""1"",""4"",""4"",""2"",""3"",""1"",""4"",""4"",""2"",""3"",""1"",""4"",""4"",""2"",""3"",""1""]","[1.136,1.63,2.029,2.534,3.071,3.73,4.26,4.621,5.034,5.412,6.07,6.503,6.946,7.326,7.744,8.56,9.093,9.653,9.989]",0,14,14,14,1,42314,,10,1,2021-01-12_16h47.22.458,Sequence Training,2020.1.3,Win32,60
"[""4"",""1"",""3"",""2"",""4"",""4"",""1"",""3"",""2"",""4"",""4"",""1"",""3"",""2"",""4"",""4"",""1"",""3"",""2"",""4""]","[0.399,0.793,1.223,1.755,2.352,3.089,3.564,4.041,4.431,4.949,5.543,5.957,6.44,6.834,7.316,7.874,8.324,8.83,9.239,9.658]",0,15,15,15,1,41324,,10,1,2021-01-12_16h47.22.458,Sequence Training,2020.1.3,Win32,60
"[""4"",""1"",""3"",""2"",""4"",""4"",""1"",""3"",""2"",""4"",""4"",""1"",""3"",""2"",""4"",""4"",""1"",""3""]","[0.802,1.184,1.641,1.976,2.396,3.083,3.417,3.808,4.108,4.662,5.459,6.352,6.858,7.308,8.351,8.952,9.433,9.992]",0,16,16,16,1,41324,,10,1,2021-01-12_16h47.22.458,Sequence Training,2020.1.3,Win32,60
"[""4"",""1"",""3"",""2"",""4"",""4"",""1"",""3"",""2"",""4"",""4"",""1"",""3"",""2"",""4"",""4"",""1"",""3"",""2"",""4""]","[0.41,0.768,1.213,1.559,1.944,2.417,2.767,3.309,3.604,3.954,4.534,4.862,5.459,5.77,6.378,7.121,7.797,8.926,9.226,9.772]",0,17,17,17,1,41324,,10,1,2021-01-12_16h47.22.458,Sequence Training,2020.1.3,Win32,60
"[""4"",""1"",""3"",""2"",""4"",""4"",""1"",""3"",""2"",""4"",""4"",""1"",""3"",""2"",""4"",""4"",""1"",""3"",""2"",""4"",""4""]","[0.328,0.735,1.221,1.551,1.955,2.444,2.814,3.354,3.664,4.029,4.559,4.903,5.593,5.877,6.226,6.978,7.326,7.897,8.297,8.81,9.712]",0,18,18,18,1,41324,,10,1,2021-01-12_16h47.22.458,Sequence Training,2020.1.3,Win32,60
"[""4"",""1"",""3"",""2"",""4"",""4"",""1"",""3"",""2"",""4"",""4"",""1"",""3"",""2"",""4"",""4"",""1"",""3"",""2"",""4"",""4"",""1"",""3"",""2"",""4""]","[0.421,0.789,1.17,1.566,1.954,2.345,2.712,3.179,3.513,3.862,4.262,4.612,5.113,5.404,5.753,6.18,6.556,7.096,7.404,7.746,8.182,8.522,8.997,9.305,9.637]",0,19,19,19,1,41324,,10,1,2021-01-12_16h47.22.458,Sequence Training,2020.1.3,Win32,60
"[""4"",""1"",""3"",""2"",""4"",""4"",""1"",""3"",""2"",""4"",""4"",""1"",""3"",""2"",""4"",""4"",""1"",""3"",""2"",""4"",""4"",""1"",""3"",""2"",""4""]","[0.402,0.792,1.221,1.542,1.875,2.393,2.734,3.16,3.466,3.802,4.317,4.661,5.068,5.375,5.708,6.291,6.587,7.067,7.366,7.708,8.321,8.633,9.075,9.376,9.703]",0,20,20,20,1,41324,,10,1,2021-01-12_16h47.22.458,Sequence Training,2020.1.3,Win32,60
"[""4"",""1"",""3"",""2"",""4"",""4"",""1"",""3"",""2"",""4"",""4"",""1"",""3"",""2"",""4"",""4"",""1"",""3"",""2"",""4"",""4"",""1"",""3"",""2""]","[0.82,1.145,1.503,1.853,2.236,2.786,3.145,3.561,3.853,4.161,4.65,4.962,5.507,5.806,6.189,6.887,7.253,7.887,8.12,8.421,9.109,9.34,9.711,9.954]",0,21,21,21,1,41324,,0,1,2021-01-12_16h47.22.458,Sequence Training,2020.1.3,Win32,60
