Key_Response.keys,Key_Response.rt,trials.thisRepN,trials.thisTrialN,trials.thisN,trials.thisIndex,trials.ran,Sequences,Repeat,BreakTime,session,date,expName,psychopyVersion,OS,frameRate
"[""4"",""1"",""3"",""2"",""4"",""4"",""1"",""3"",""2"",""4"",""4"",""1""]","[1.551,1.898,2.757,3.048,3.866,5.575,5.969,8.007,8.36,8.618,9.619,9.912]",0,0,0,0,1,41324,,10,1,2020-12-29_12h47.31.700,Sequence Training,2020.1.3,Win32,60
"[""4"",""1"",""3"",""2"",""4"",""4"",""1"",""3"",""2"",""4"",""4"",""1"",""3"",""2"",""4"",""4"",""1"",""3"",""2""]","[2.408,2.723,3.277,3.391,3.735,4.185,4.523,5.093,5.199,5.501,5.868,6.176,6.62,6.724,7.08,7.487,8.734,9.581,9.68]",0,1,1,1,1,41324,,10,1,2020-12-29_12h47.31.700,Sequence Training,2020.1.3,Win32,60
"[""4"",""1"",""3"",""2"",""4"",""4"",""1"",""3"",""2"",""4"",""4"",""1"",""3"",""2"",""4""]","[2.776,2.983,3.6,4.714,5,5.581,5.814,6.15,6.494,6.898,8.791,9.067,9.43,9.674,9.968]",0,2,2,2,1,41324,,10,1,2020-12-29_12h47.31.700,Sequence Training,2020.1.3,Win32,60
"[""4"",""1"",""3"",""2"",""4"",""4"",""1"",""3"",""2"",""4"",""4"",""1"",""3"",""2"",""4""]","[1.736,2.034,2.402,2.8,3.159,3.503,4.022,4.59,5.411,5.901,7.54,7.821,8.23,9.059,9.763]",0,3,3,3,1,41324,,10,1,2020-12-29_12h47.31.700,Sequence Training,2020.1.3,Win32,60
"[""4"",""1"",""3"",""2"",""4"",""4"",""1"",""3"",""2"",""4"",""4"",""1"",""3"",""2"",""4"",""4"",""1"",""3"",""2"",""4"",""4""]","[0.904,1.183,1.611,2.079,2.513,2.864,3.246,3.979,4.305,4.661,5.013,5.363,6.39,6.791,7.126,7.451,8.192,8.842,9.108,9.516,9.925]",0,4,4,4,1,41324,,30,1,2020-12-29_12h47.31.700,Sequence Training,2020.1.3,Win32,60
"[""4"",""1"",""3"",""2"",""4"",""4"",""1"",""3"",""2"",""4"",""4"",""1"",""3"",""2"",""4"",""4"",""1"",""3"",""2"",""4"",""4"",""1""]","[1.048,1.386,1.665,1.934,2.305,2.631,2.989,3.435,3.713,4.019,4.349,4.705,5.297,5.579,5.92,6.516,6.886,7.514,7.862,8.617,9.55,9.888]",0,5,5,5,1,41324,,0,1,2020-12-29_12h47.31.700,Sequence Training,2020.1.3,Win32,60
"[""3"",""4"",""2"",""3"",""1"",""4"",""4"",""2"",""3"",""1"",""4"",""4"",""2"",""3""]","[0.201,3.04,3.88,4.308,4.78,5.185,5.939,6.52,7.197,7.648,8.044,8.815,9.312,9.693]",0,6,6,6,1,42314,,10,1,2020-12-29_12h47.31.700,Sequence Training,2020.1.3,Win32,60
"[""4"",""1"",""3"",""2"",""4"",""4"",""1"",""3"",""2"",""4"",""4"",""1"",""3"",""2"",""4"",""4"",""1"",""3"",""2""]","[1.125,1.774,2.985,3.326,3.779,4.262,4.552,4.987,5.672,5.988,6.387,6.819,7.347,7.603,7.948,8.721,9.086,9.605,9.884]",0,7,7,7,1,41324,,0,1,2020-12-29_12h47.31.700,Sequence Training,2020.1.3,Win32,60
"[""4"",""2"",""3"",""1"",""4"",""4"",""2"",""3"",""1"",""4"",""4""]","[0.099,4.582,5.404,5.798,6.142,6.691,7.273,8.442,8.851,9.166,9.501]",0,8,8,8,1,42314,,10,1,2020-12-29_12h47.31.700,Sequence Training,2020.1.3,Win32,60
"[""4"",""1"",""3"",""2"",""4"",""4"",""1"",""3"",""2"",""4"",""4"",""1"",""3"",""2"",""4"",""4"",""1"",""3"",""2"",""4"",""4"",""1"",""3"",""2""]","[1.04,1.337,1.633,1.94,2.267,2.61,3.121,3.506,3.796,4.148,4.911,5.266,5.673,5.94,6.186,6.484,6.913,7.394,7.658,7.945,8.25,8.576,9.626,9.855]",0,9,9,9,1,41324,,0,1,2020-12-29_12h47.31.700,Sequence Training,2020.1.3,Win32,60
"[""4"",""2"",""3"",""1"",""4"",""4"",""2"",""3"",""1"",""4"",""4"",""2"",""3"",""1"",""4"",""4""]","[1.881,2.45,3.171,3.54,3.825,4.341,4.805,5.264,5.561,5.848,6.415,7.174,8.124,8.418,8.853,9.393]",0,10,10,10,1,42314,,10,1,2020-12-29_12h47.31.700,Sequence Training,2020.1.3,Win32,60
"[""4"",""1"",""3"",""2"",""4"",""4"",""1"",""3"",""2"",""4"",""4"",""1"",""3"",""2"",""4"",""4"",""1"",""3"",""2"",""4"",""4"",""1"",""3"",""2"",""4"",""4"",""1""]","[0.879,1.213,1.547,1.825,2.17,2.572,2.977,3.41,3.669,3.98,4.349,4.842,5.246,5.527,5.824,6.152,6.459,6.857,7.146,7.377,7.723,8.115,8.456,8.758,9.028,9.355,9.731]",0,11,11,11,1,41324,,0,1,2020-12-29_12h47.31.700,Sequence Training,2020.1.3,Win32,60
"[""3"",""4"",""2"",""3"",""1"",""4"",""4"",""2"",""3"",""1"",""4"",""4"",""2"",""3"",""1"",""4"",""4"",""2"",""3"",""1""]","[0.077,1.786,2.371,2.731,3.329,3.642,4.039,4.437,4.783,5.118,5.453,5.92,6.313,6.767,7.18,7.56,8.428,9.012,9.408,9.697]",0,12,12,12,1,42314,,10,1,2020-12-29_12h47.31.700,Sequence Training,2020.1.3,Win32,60
"[""4"",""1"",""3"",""2"",""4"",""4"",""1"",""3"",""2"",""4"",""4"",""1"",""3"",""2"",""4"",""4"",""1"",""3"",""2"",""4"",""4"",""1"",""3"",""2"",""4"",""4"",""1"",""3""]","[0.832,1.127,1.475,1.726,2.045,2.314,2.671,2.945,3.246,3.553,3.9,4.247,4.647,4.941,5.251,5.559,5.972,6.367,6.657,6.986,7.422,7.775,8.144,8.389,8.702,9.053,9.438,9.875]",0,13,13,13,1,41324,,0,1,2020-12-29_12h47.31.700,Sequence Training,2020.1.3,Win32,60
"[""2"",""4"",""2"",""3"",""1"",""4"",""4"",""2"",""4"",""1"",""4"",""4"",""2"",""3"",""1"",""4"",""4""]","[0.131,1.685,2.033,2.433,2.905,3.247,4.065,4.5,5.199,6.566,6.825,7.605,8.016,8.353,8.92,9.257,9.814]",0,14,14,14,1,42314,,10,1,2020-12-29_12h47.31.700,Sequence Training,2020.1.3,Win32,60
"[""4"",""1"",""3"",""2"",""4"",""4"",""1"",""3"",""2"",""4"",""4"",""1"",""3"",""2"",""4"",""4"",""1"",""3""]","[0.727,1.156,1.579,1.913,2.248,2.655,3.086,3.481,3.722,4.137,4.735,5.232,6.164,6.412,6.921,8.896,9.442,9.882]",0,15,15,15,1,41324,,10,1,2020-12-29_12h47.31.700,Sequence Training,2020.1.3,Win32,60
"[""4"",""1"",""3"",""2"",""4"",""4"",""1"",""3"",""2"",""4"",""4"",""1"",""3"",""2"",""4"",""4"",""1"",""3"",""2"",""4"",""4"",""1"",""3"",""2""]","[0.796,1.213,1.61,1.865,2.151,2.446,2.804,3.131,3.444,3.784,4.133,4.44,4.739,5.026,5.471,5.75,6.097,6.432,6.769,7.916,8.699,9.17,9.53,9.774]",0,16,16,16,1,41324,,10,1,2020-12-29_12h47.31.700,Sequence Training,2020.1.3,Win32,60
"[""4"",""1"",""3"",""2"",""4"",""4"",""1"",""3"",""2"",""4"",""4"",""1"",""2"",""4"",""4"",""1"",""3"",""2"",""4"",""4"",""1""]","[2.065,2.37,2.679,2.88,3.204,3.553,3.88,4.327,4.546,4.833,5.234,5.588,7.211,7.533,7.922,8.422,8.811,9.094,9.352,9.693,10.009]",0,17,17,17,1,41324,,10,1,2020-12-29_12h47.31.700,Sequence Training,2020.1.3,Win32,60
"[""4"",""1"",""3"",""2"",""4"",""4"",""1"",""3"",""2"",""4"",""4"",""1"",""3"",""2"",""4"",""4"",""1"",""3"",""2"",""4"",""4"",""1"",""3"",""2"",""4"",""4"",""1"",""3""]","[0.612,0.838,1.141,1.405,1.678,1.907,2.231,2.583,2.791,3.088,3.39,3.749,4.227,4.544,4.907,5.779,6.171,6.555,6.796,7.097,7.515,7.873,8.244,8.498,8.814,9.144,9.574,9.972]",0,18,18,18,1,41324,,10,1,2020-12-29_12h47.31.700,Sequence Training,2020.1.3,Win32,60
"[""4"",""1"",""3"",""2"",""4"",""4"",""1"",""3"",""2"",""4"",""4"",""1"",""3"",""2"",""4"",""4"",""1"",""3"",""2"",""4"",""4"",""1"",""3"",""2"",""4"",""4"",""1"",""2"",""3"",""4""]","[0.64,0.861,1.124,1.399,1.689,1.971,2.226,2.521,2.812,3.123,3.399,3.73,4.05,4.348,4.665,4.946,5.212,5.475,5.762,6.065,6.325,6.637,6.977,7.37,7.749,8.27,8.516,8.859,9.376,9.668]",0,19,19,19,1,41324,,10,1,2020-12-29_12h47.31.700,Sequence Training,2020.1.3,Win32,60
"[""4"",""1"",""3"",""2"",""4"",""4"",""1"",""3"",""2"",""4"",""4"",""1"",""3"",""2"",""4"",""4"",""1"",""3"",""2"",""4"",""4"",""1"",""3"",""2"",""4"",""4"",""1"",""3"",""2"",""4""]","[0.691,0.961,1.244,1.521,1.824,2.175,2.459,2.933,3.193,3.504,3.849,4.183,4.595,4.864,5.195,5.529,5.831,6.2,6.472,6.769,7.068,7.402,7.823,8.096,8.399,8.696,9.004,9.337,9.609,9.932]",0,20,20,20,1,41324,,10,1,2020-12-29_12h47.31.700,Sequence Training,2020.1.3,Win32,60
"[""4"",""1"",""3"",""2"",""4"",""4"",""1"",""3"",""2"",""4"",""4"",""1"",""3"",""2"",""4"",""4"",""1"",""3"",""2"",""4"",""4"",""1"",""3"",""2"",""4"",""4"",""1"",""3"",""2"",""4"",""4"",""1"",""3""]","[0.801,1.097,1.357,1.565,1.835,2.074,2.383,2.651,2.914,3.182,3.45,3.869,4.106,4.366,4.636,4.915,5.273,5.798,6.019,6.27,6.522,6.856,7.221,7.417,7.714,7.984,8.284,8.639,8.879,9.129,9.389,9.724,10.003]",0,21,21,21,1,41324,,0,1,2020-12-29_12h47.31.700,Sequence Training,2020.1.3,Win32,60
