Key_Response.keys,Key_Response.rt,trials.thisRepN,trials.thisTrialN,trials.thisN,trials.thisIndex,trials.ran,Sequences,Repeat,BreakTime,session,date,expName,psychopyVersion,OS,frameRate
"[""4"",""1"",""3"",""2"",""4"",""4"",""1"",""3"",""2"",""4"",""4"",""1"",""3"",""2"",""4"",""4"",""1"",""3"",""2"",""4"",""4"",""1"",""4"",""2"",""3"",""4""]","[1.13,1.346,1.546,1.746,2.004,2.433,2.778,3.002,3.203,3.403,3.73,3.923,4.107,4.259,4.458,4.77,4.977,5.202,5.37,5.505,5.89,6.114,6.329,7.257,8.194,9.034]",0,0,0,0,1,41324,,10,1,2020-10-06_08h43.39.606,Sequence Training,2020.1.3,Win32,60
"[""4"",""1"",""3"",""2"",""4"",""4"",""1"",""3"",""2"",""4"",""4"",""1"",""3"",""2"",""4"",""4"",""1"",""3"",""2"",""4"",""4"",""1"",""4"",""3"",""2"",""4"",""4"",""1"",""3"",""2"",""4"",""4"",""1"",""3"",""2"",""4""]","[0.909,1.087,1.229,1.389,1.957,2.493,2.656,3.006,3.207,3.407,4.149,4.342,4.597,4.781,4.965,5.245,5.413,5.637,5.781,5.957,6.181,6.317,6.541,6.725,6.897,7.053,7.789,8.033,8.365,8.573,8.773,9.077,9.253,9.477,9.629,9.845]",0,1,1,1,1,41324,,10,1,2020-10-06_08h43.39.606,Sequence Training,2020.1.3,Win32,60
"[""4"",""1"",""3"",""2"",""4"",""4"",""1"",""3"",""2"",""4"",""4"",""1"",""3"",""2"",""4"",""4"",""1"",""3"",""2"",""4"",""4"",""1"",""3"",""2"",""4"",""4"",""1"",""3"",""2"",""4"",""4"",""1"",""3"",""2"",""4"",""4"",""1"",""3"",""2"",""4"",""4"",""1"",""3""]","[0.749,0.949,1.14,1.308,1.5,1.75,1.917,2.124,2.268,2.468,2.676,2.828,3.036,3.18,3.356,3.548,3.748,3.924,4.021,4.204,4.469,4.644,5.076,5.244,5.476,5.7,5.916,6.141,6.244,6.452,6.709,6.844,7.1,7.212,7.34,7.86,8.028,8.268,8.412,8.596,8.884,9.036,9.908]",0,2,2,2,1,41324,,10,1,2020-10-06_08h43.39.606,Sequence Training,2020.1.3,Win32,60
"[""4"",""1"",""3"",""2"",""4"",""4"",""1"",""3"",""2"",""4"",""4"",""1"",""3"",""2"",""4"",""4"",""1"",""3"",""2"",""4"",""4"",""1"",""3"",""2"",""4"",""4"",""1"",""3"",""2"",""4"",""4"",""1"",""3"",""2"",""4"",""4"",""1"",""3"",""2"",""4"",""4"",""1"",""3"",""2"",""4"",""4"",""1"",""3""]","[0.721,0.873,1.049,1.193,1.392,1.625,1.808,2.001,2.121,2.288,2.576,2.712,2.936,3.048,3.225,3.521,3.665,3.888,3.984,4.144,4.48,4.632,4.864,4.985,5.121,5.464,5.6,5.832,5.928,6.089,6.448,6.6,6.816,6.944,7.104,7.398,7.545,7.832,8.113,8.256,8.553,8.688,8.864,8.968,9.104,9.401,9.625,9.976]",0,3,3,3,1,41324,,10,1,2020-10-06_08h43.39.606,Sequence Training,2020.1.3,Win32,60
"[""4"",""1"",""3"",""2"",""4"",""4"",""1"",""3"",""2"",""4"",""4"",""1"",""3"",""2"",""4"",""4"",""1"",""3"",""2"",""4"",""4"",""1"",""3"",""2"",""4"",""4"",""1"",""3"",""3"",""4"",""4"",""1"",""3"",""2"",""4"",""4"",""1"",""3"",""2"",""4"",""4"",""1"",""3"",""2"",""4"",""4"",""1"",""3"",""2"",""4"",""4"",""1"",""3"",""2"",""4""]","[0.748,0.89,1.074,1.194,1.378,1.61,1.794,1.986,2.082,2.202,2.442,2.578,2.746,2.858,2.986,3.203,3.354,3.506,3.626,3.73,3.954,4.114,4.282,4.402,4.482,4.698,4.906,5.146,5.378,5.458,5.77,5.946,6.098,6.194,6.314,6.618,6.778,6.938,7.066,7.162,7.427,7.666,7.818,7.962,8.074,8.426,8.698,8.954,9.09,9.181,9.418,9.65,9.794,9.89,9.986]",0,4,4,4,1,41324,,30,1,2020-10-06_08h43.39.606,Sequence Training,2020.1.3,Win32,60
"[""4"",""1"",""3"",""2"",""4"",""4"",""1"",""3"",""2"",""4"",""4"",""1"",""3"",""2"",""4"",""4"",""1"",""3"",""2"",""4"",""4"",""1"",""3"",""2"",""4"",""4"",""1"",""3"",""2"",""4"",""4"",""1"",""3"",""2"",""4"",""4"",""1"",""3"",""2"",""4"",""4"",""1"",""3"",""2"",""4"",""4"",""4"",""1"",""3"",""2"",""4""]","[0.803,0.947,1.142,1.251,1.403,1.61,1.803,1.97,2.082,2.194,2.428,2.65,2.862,2.954,3.066,3.339,3.579,3.811,3.954,4.186,4.55,4.698,4.884,4.97,5.074,5.333,5.506,5.701,5.818,5.938,6.178,6.508,6.723,6.836,6.915,7.195,7.387,7.587,7.738,7.842,8.09,8.33,8.514,8.634,8.723,8.957,9.203,9.324,9.541,9.698,9.778]",0,5,5,5,1,41324,,0,1,2020-10-06_08h43.39.606,Sequence Training,2020.1.3,Win32,60
"[""4"",""4"",""2"",""3"",""1"",""4"",""4"",""2"",""3"",""1"",""4"",""4"",""2"",""3"",""1"",""4"",""4"",""2"",""3"",""1"",""4"",""4"",""3""]","[0.034,1.353,1.921,2.065,2.344,2.521,2.94,4.848,5.016,5.227,5.512,5.921,6.4,6.553,6.729,7.025,7.369,8.13,8.332,8.952,9.288,9.652,10.025]",0,6,6,6,1,42314,,10,1,2020-10-06_08h43.39.606,Sequence Training,2020.1.3,Win32,60
"[""4"",""1"",""3"",""2"",""4"",""1"",""3"",""2"",""4"",""4"",""1"",""2"",""3"",""4"",""4"",""1"",""3"",""2"",""4"",""4"",""1"",""3"",""2"",""4"",""4""]","[0.67,0.893,1.079,1.405,2.125,2.717,3.589,3.741,4.085,4.552,5.157,5.672,6.429,6.693,6.997,7.285,7.776,8.021,8.277,8.653,8.965,9.189,9.357,9.645,9.965]",0,7,7,7,1,41324,,0,1,2020-10-06_08h43.39.606,Sequence Training,2020.1.3,Win32,60
"[""1"",""4"",""2"",""3"",""1"",""4"",""4"",""2"",""3"",""1"",""4"",""4"",""2"",""3"",""1"",""4"",""4"",""2"",""3"",""1"",""4"",""4"",""2"",""3"",""1""]","[0.159,1.359,1.646,1.83,2.047,2.278,2.806,3.671,3.966,4.351,4.646,5.055,5.935,6.103,6.287,6.83,7.287,7.575,7.782,7.966,8.55,8.866,9.583,9.727,9.91]",0,8,8,8,1,42314,,10,1,2020-10-06_08h43.39.606,Sequence Training,2020.1.3,Win32,60
"[""4"",""1"",""3"",""2"",""4"",""4"",""1"",""3"",""2"",""4"",""4"",""1"",""3"",""2"",""4"",""4"",""1"",""3"",""2"",""4"",""4"",""1"",""3"",""2"",""4"",""4"",""1"",""3"",""2"",""4"",""4"",""1"",""3"",""2"",""4"",""4"",""1""]","[0.72,0.927,1.135,1.287,1.503,1.775,1.975,2.407,2.575,2.77,3.039,3.271,3.555,3.695,3.831,4.69,5.304,5.792,5.927,6.119,6.399,6.629,6.839,6.967,7.079,7.351,7.623,7.928,8.048,8.167,8.551,8.863,9.167,9.319,9.439,9.743,9.967]",0,9,9,9,1,41324,,0,1,2020-10-06_08h43.39.606,Sequence Training,2020.1.3,Win32,60
"[""3"",""4"",""2"",""3"",""1"",""4"",""4"",""2"",""3"",""1"",""4"",""4"",""2"",""3"",""1"",""4"",""4"",""2"",""3"",""1"",""4"",""4"",""2"",""3"",""1"",""4"",""4"",""2"",""3"",""1"",""4""]","[0.141,1.861,2.157,2.317,2.472,2.773,3.213,3.573,3.733,3.869,4.117,4.453,4.869,4.989,5.16,5.376,5.669,6.029,6.197,6.662,6.973,7.381,7.773,7.893,8.077,8.549,8.925,9.214,9.341,9.517,9.813]",0,10,10,10,1,42314,,10,1,2020-10-06_08h43.39.606,Sequence Training,2020.1.3,Win32,60
"[""4"",""1"",""3"",""2"",""4"",""1"",""3"",""2"",""4"",""4"",""1"",""2"",""4"",""4"",""1"",""3"",""2"",""1"",""4"",""4"",""1"",""3"",""2"",""4"",""4"",""1"",""3"",""2"",""4""]","[0.678,1.061,1.285,1.405,1.726,2.341,2.581,2.686,2.903,3.293,3.445,3.765,3.949,4.357,4.597,5.374,5.485,5.949,6.742,7.821,8.141,8.413,8.549,8.837,9.141,9.349,9.621,9.733,9.877]",0,11,11,11,1,41324,,0,1,2020-10-06_08h43.39.606,Sequence Training,2020.1.3,Win32,60
"[""4"",""4"",""2"",""3"",""1"",""4"",""4"",""2"",""3"",""1"",""4"",""4"",""2"",""3"",""1"",""4"",""4"",""2"",""3"",""1"",""4"",""4"",""2"",""3"",""1"",""4"",""4"",""2""]","[0.123,0.844,1.716,1.827,2.091,2.324,2.86,3.827,3.941,4.092,4.324,4.676,5.059,5.179,5.347,5.635,5.947,6.188,6.324,6.483,6.572,7.115,7.565,7.675,7.964,8.123,9.067,9.939]",0,12,12,12,1,42314,,10,1,2020-10-06_08h43.39.606,Sequence Training,2020.1.3,Win32,60
"[""4"",""1"",""3"",""2"",""4"",""4"",""1"",""3"",""2"",""4"",""4"",""1"",""3"",""2"",""4"",""4"",""1"",""3"",""2"",""4"",""4"",""1"",""3"",""2"",""4"",""4"",""1"",""2""]","[1.308,1.556,1.86,2.076,2.372,2.692,3.789,4.075,4.195,4.395,4.636,4.78,5.157,5.315,5.659,5.959,6.196,6.564,6.699,6.852,7.196,7.38,7.788,7.924,8.035,8.299,8.62,9.988]",0,13,13,13,1,41324,,0,1,2020-10-06_08h43.39.606,Sequence Training,2020.1.3,Win32,60
"[""4"",""2"",""3"",""3"",""1"",""4"",""4"",""2"",""3"",""1"",""4"",""4"",""2"",""3"",""1"",""4"",""4"",""2"",""3"",""1"",""4"",""4"",""1"",""2"",""3"",""4"",""4"",""2"",""3"",""1"",""4"",""4"",""1""]","[0.945,1.857,1.929,2.089,2.121,2.521,2.938,3.145,3.265,3.409,3.785,4.129,4.324,4.442,4.577,4.881,5.169,5.417,5.545,5.673,5.833,6.217,6.545,7.185,7.313,7.385,8.457,8.916,9.025,9.153,9.417,9.65,9.817]",0,14,14,14,1,42314,,10,1,2020-10-06_08h43.39.606,Sequence Training,2020.1.3,Win32,60
"[""4"",""1"",""3"",""2"",""4"",""4"",""1"",""3"",""2"",""4"",""4"",""1"",""2"",""3"",""2"",""4"",""4"",""1"",""3"",""2"",""4"",""4"",""1"",""3"",""2"",""4"",""4"",""1"",""1"",""3"",""2"",""4"",""4"",""1""]","[0.858,1.122,1.355,1.554,1.826,2.102,2.706,2.986,3.146,3.41,3.722,4.39,4.674,4.81,4.994,5.141,5.542,6.477,6.698,6.786,6.978,7.282,7.474,7.818,7.962,8.082,8.53,8.698,8.874,9.13,9.242,9.362,9.658,9.882]",0,15,15,15,1,41324,,10,1,2020-10-06_08h43.39.606,Sequence Training,2020.1.3,Win32,60
"[""4"",""1"",""3"",""2"",""4"",""4"",""1"",""3"",""2"",""4"",""4"",""1"",""3"",""2"",""4"",""4"",""1"",""3"",""2"",""4"",""4"",""1"",""3"",""2"",""4"",""4"",""1"",""3"",""2"",""4"",""4"",""1"",""3"",""2"",""4"",""4"",""1"",""3"",""2""]","[0.877,1.117,1.308,1.405,1.629,1.919,2.101,2.389,2.533,2.677,2.996,3.189,3.493,3.628,3.756,4.069,4.292,4.606,4.732,4.876,5.197,5.413,5.725,5.86,5.98,6.31,6.564,6.973,7.077,7.181,8.005,8.453,8.636,8.748,8.916,9.248,9.421,9.829,9.965]",0,16,16,16,1,41324,,10,1,2020-10-06_08h43.39.606,Sequence Training,2020.1.3,Win32,60
"[""4"",""1"",""3"",""2"",""4"",""4"",""1"",""3"",""2"",""4"",""4"",""1"",""3"",""2"",""4"",""4"",""1"",""3"",""2"",""4"",""4"",""1"",""3"",""2"",""4"",""4"",""1"",""3"",""2"",""4"",""4"",""1"",""3"",""2"",""4"",""4"",""1"",""3"",""2"",""4"",""4"",""1"",""3""]","[0.728,1.016,1.232,1.327,1.519,1.807,1.951,2.239,2.359,2.463,2.802,3.015,3.271,3.407,3.543,3.839,4.071,4.327,4.489,4.559,4.927,5.159,5.423,5.567,5.663,5.991,6.247,6.562,6.671,6.81,7.143,7.411,7.687,7.823,7.962,8.28,8.48,8.783,8.959,9.098,9.383,9.648,9.927]",0,17,17,17,1,41324,,10,1,2020-10-06_08h43.39.606,Sequence Training,2020.1.3,Win32,60
"[""4"",""1"",""3"",""2"",""4"",""4"",""1"",""3"",""2"",""4"",""4"",""1"",""3"",""2"",""4"",""4"",""1"",""3"",""2"",""4"",""4"",""1"",""3"",""2"",""4"",""4"",""1"",""3"",""2"",""4"",""4"",""1"",""3"",""2"",""4"",""4"",""1"",""3"",""2"",""4"",""4"",""1"",""3"",""2"",""4""]","[0.62,0.835,1.059,1.147,1.411,1.651,1.763,2.019,2.123,2.262,2.539,2.667,2.907,3.019,3.131,3.419,3.587,3.859,4.027,4.155,4.459,4.667,4.916,5.035,5.171,5.504,5.739,6.011,6.139,6.259,6.571,6.755,7.004,7.188,7.224,7.579,7.867,8.221,8.379,8.531,8.883,9.235,9.573,9.756,9.851]",0,18,18,18,1,41324,,10,1,2020-10-06_08h43.39.606,Sequence Training,2020.1.3,Win32,60
"[""4"",""1"",""3"",""2"",""4"",""4"",""1"",""3"",""2"",""4"",""4"",""1"",""3"",""2"",""4"",""4"",""1"",""3"",""2"",""4"",""4"",""1"",""3"",""2"",""4"",""4"",""1"",""3"",""2"",""4"",""4"",""1"",""3"",""2"",""4"",""4"",""1"",""3"",""2"",""4"",""4"",""1"",""3"",""2"",""4"",""4""]","[0.741,0.932,1.093,1.22,1.492,1.756,1.884,2.135,2.228,2.405,2.686,2.844,3.069,3.172,3.324,3.62,3.854,4.06,4.204,4.316,4.623,4.796,5.028,5.19,5.316,5.628,5.836,6.116,6.252,6.388,6.684,6.9,7.164,7.268,7.404,7.716,7.912,8.229,8.348,8.484,8.78,8.972,9.316,9.42,9.532,9.852]",0,19,19,19,1,41324,,10,1,2020-10-06_08h43.39.606,Sequence Training,2020.1.3,Win32,60
"[""4"",""1"",""3"",""2"",""4"",""4"",""1"",""3"",""2"",""4"",""4"",""1"",""3"",""2"",""4"",""4"",""1"",""3"",""2"",""4"",""4"",""1"",""3"",""4"",""2"",""4"",""1"",""3"",""2"",""4"",""4"",""1"",""3"",""4"",""2"",""4"",""1"",""3"",""2"",""4"",""4"",""1"",""3"",""2"",""4"",""4"",""1""]","[0.714,0.903,1.094,1.199,1.351,1.601,1.711,1.911,2.047,2.167,2.431,2.511,2.774,2.895,3.039,3.32,3.447,3.646,3.783,3.895,4.142,4.271,4.506,4.656,4.807,5.471,5.687,5.903,6.058,6.183,6.543,6.839,7.007,7.144,7.255,7.687,7.919,8.143,8.255,8.363,8.671,8.83,9.081,9.215,9.311,9.782,10.016]",0,20,20,20,1,41324,,10,1,2020-10-06_08h43.39.606,Sequence Training,2020.1.3,Win32,60
"[""4"",""1"",""3"",""2"",""4"",""4"",""1"",""3"",""2"",""4"",""4"",""1"",""3"",""2"",""4"",""4"",""1"",""3"",""2"",""4"",""4"",""1"",""3"",""2"",""4"",""4"",""1"",""3"",""2"",""4"",""4"",""1"",""3"",""2"",""4"",""4"",""1"",""3"",""2"",""4"",""4"",""1"",""3"",""2"",""4"",""4"",""1"",""3"",""2"",""4"",""4"",""1""]","[0.633,0.801,0.977,1.089,1.233,1.482,1.609,1.825,1.905,2.034,2.273,2.418,2.618,2.729,2.818,3.105,3.305,3.521,3.618,3.729,4.02,4.217,4.441,4.555,4.641,4.906,5.128,5.345,5.457,5.497,5.833,6.075,6.281,6.409,6.513,6.817,7.073,7.26,7.411,7.505,7.811,8.065,8.233,8.379,8.489,8.785,9.009,9.193,9.353,9.449,9.748,9.985]",0,21,21,21,1,41324,,0,1,2020-10-06_08h43.39.606,Sequence Training,2020.1.3,Win32,60
