Key_Response.keys,Key_Response.rt,trials.thisRepN,trials.thisTrialN,trials.thisN,trials.thisIndex,trials.ran,Sequences,Repeat,BreakTime,session,date,expName,psychopyVersion,OS,frameRate
"[""4"",""1"",""3"",""2"",""4"",""4"",""1"",""3"",""2"",""4"",""4"",""1"",""3"",""2"",""4"",""4"",""1"",""2"",""3"",""2"",""4"",""4""]","[1.24,1.678,2.264,2.601,2.905,3.366,3.681,3.997,4.278,4.547,5.223,5.562,6.054,6.327,6.528,7.034,7.294,7.663,8.496,8.777,9.16,9.88]",0,0,0,0,1,41324,,10,1,2020-10-06_12h35.33.662,Sequence Training,2020.1.3,Win32,60
"[""4"",""1"",""3"",""2"",""4"",""4"",""1"",""3"",""2"",""4"",""4"",""1"",""3"",""2"",""4"",""4"",""1"",""3"",""2"",""4"",""4"",""1"",""3"",""2"",""4"",""4"",""1"",""3""]","[0.788,1.08,1.687,2.002,2.25,2.722,3.015,3.31,3.566,3.78,4.264,4.522,4.793,5.017,5.21,5.636,5.928,6.367,6.66,6.885,7.627,7.965,8.247,8.471,8.676,9.126,9.371,9.742]",0,1,1,1,1,41324,,10,1,2020-10-06_12h35.33.662,Sequence Training,2020.1.3,Win32,60
"[""4"",""1"",""3"",""2"",""4"",""4"",""1"",""3"",""2"",""4"",""4"",""1"",""3"",""2"",""4"",""4"",""1"",""3"",""2"",""4"",""4"",""1"",""3"",""2"",""4"",""4"",""1"",""3"",""2"",""4"",""4"",""1"",""3"",""2"",""4"",""4""]","[0.655,0.924,1.205,1.475,1.644,2.026,2.297,2.544,2.78,2.96,3.275,3.579,3.818,4.051,4.22,4.535,4.851,5.134,5.322,5.491,5.908,6.211,6.471,6.651,6.797,7.291,7.6,7.854,8,8.158,8.653,8.878,9.035,9.204,9.328,9.879]",0,2,2,2,1,41324,,10,1,2020-10-06_12h35.33.662,Sequence Training,2020.1.3,Win32,60
"[""4"",""1"",""3"",""2"",""4"",""4"",""1"",""3"",""2"",""4"",""4"",""1"",""3"",""2"",""4"",""4"",""1"",""3"",""2"",""4"",""4"",""1"",""3"",""2"",""4"",""4"",""1"",""3"",""2"",""4"",""4"",""1"",""3"",""2"",""4"",""4"",""1""]","[0.575,0.754,0.923,1.118,1.251,1.655,1.924,2.059,2.273,2.401,2.858,3.128,3.3,3.477,3.612,4.04,4.242,4.411,4.624,4.726,5.344,5.569,5.76,5.919,6.053,6.559,6.807,7.235,7.459,7.594,8.022,8.291,8.539,8.753,8.854,9.283,9.519]",0,3,3,3,1,41324,,10,1,2020-10-06_12h35.33.662,Sequence Training,2020.1.3,Win32,60
"[""4"",""1"",""3"",""2"",""4"",""4"",""1"",""3"",""2"",""4"",""4"",""1"",""3"",""2"",""4"",""4"",""1"",""3"",""2"",""4"",""4"",""1"",""3"",""2"",""4"",""4"",""1"",""3"",""2"",""4"",""4"",""1"",""3"",""2"",""4"",""4""]","[0.586,0.845,1.103,1.418,1.531,1.969,2.205,2.445,2.7,2.828,3.207,3.465,3.634,4.23,4.287,4.795,5.029,5.265,5.502,5.637,5.997,6.255,6.492,6.75,6.898,7.223,7.494,7.707,7.945,8.033,8.428,8.696,9.034,9.262,9.338,9.778]",0,4,4,4,1,41324,,30,1,2020-10-06_12h35.33.662,Sequence Training,2020.1.3,Win32,60
"[""4"",""1"",""3"",""2"",""4"",""4"",""1"",""3"",""2"",""4"",""4"",""1"",""3"",""2"",""4"",""4"",""1"",""3"",""2"",""4"",""4"",""1"",""3"",""2"",""4"",""4"",""1"",""3"",""2"",""4"",""4"",""1"",""3""]","[0.951,1.242,1.546,1.827,2.064,2.718,2.918,3.101,3.413,3.517,3.875,4.088,4.335,4.584,4.707,5.044,5.292,5.667,5.922,6.046,6.451,6.71,7.025,7.294,7.43,7.812,8.051,8.467,8.712,8.85,9.286,9.511,9.938]",0,5,5,5,1,41324,,0,1,2020-10-06_12h35.33.662,Sequence Training,2020.1.3,Win32,60
"[""2"",""4"",""4"",""2"",""3"",""1"",""4"",""4"",""2"",""3"",""1"",""4"",""4"",""2"",""3"",""1"",""4"",""4"",""2"",""3"",""1"",""4"",""4""]","[0.142,0.356,2.224,2.707,2.955,3.217,3.371,3.889,4.117,4.318,4.667,4.89,5.992,6.217,6.468,6.836,7.051,7.905,8.267,8.584,8.94,9.167,9.874]",0,6,6,6,1,42314,,10,1,2020-10-06_12h35.33.662,Sequence Training,2020.1.3,Win32,60
"[""4"",""1"",""3"",""2"",""4"",""4"",""1"",""3"",""2"",""4"",""4"",""1"",""3"",""2"",""4"",""4"",""1"",""3"",""2"",""4"",""4"",""1"",""3"",""2"",""4"",""4"",""1"",""3"",""2"",""4"",""4"",""1"",""3"",""2"",""4"",""4"",""1""]","[0.806,1.221,1.469,1.717,1.886,2.223,2.484,2.684,2.887,3.023,3.427,3.674,3.867,4.124,4.251,4.667,4.901,5.083,5.306,5.484,5.924,6.15,6.34,6.567,6.723,7.195,7.454,7.769,7.994,8.129,8.534,8.77,9.029,9.266,9.401,9.799,9.986]",0,7,7,7,1,41324,,0,1,2020-10-06_12h35.33.662,Sequence Training,2020.1.3,Win32,60
"[""3"",""4"",""2"",""3"",""1"",""4"",""4"",""2"",""3"",""1"",""4"",""4"",""2"",""3"",""1"",""4"",""4"",""2"",""3"",""1"",""4"",""4"",""2"",""3"",""1"",""4""]","[0.123,1.327,2.069,2.395,2.811,3.05,3.464,3.701,3.847,4.173,4.334,4.859,5.106,5.275,5.567,5.703,6.344,6.617,6.951,7.233,7.485,8.369,8.662,8.886,9.179,9.359]",0,8,8,8,1,42314,,10,1,2020-10-06_12h35.33.662,Sequence Training,2020.1.3,Win32,60
"[""4"",""1"",""3"",""2"",""4"",""4"",""1"",""3"",""2"",""4"",""4"",""1"",""3"",""2"",""4"",""4"",""1"",""3"",""2"",""4"",""4"",""1"",""3"",""2"",""4"",""4"",""1"",""3"",""2"",""4"",""4"",""1"",""3"",""2"",""4"",""4"",""1"",""3"",""2"",""4""]","[0.618,0.853,1.089,1.284,1.418,1.888,2.068,2.238,2.518,2.684,3.069,3.305,3.44,3.688,3.834,4.205,4.453,4.644,4.824,4.994,5.387,5.6,5.758,5.96,6.118,6.633,6.771,6.984,7.175,7.31,7.862,8.067,8.256,8.47,8.594,8.987,9.167,9.369,9.517,9.718]",0,9,9,9,1,41324,,0,1,2020-10-06_12h35.33.662,Sequence Training,2020.1.3,Win32,60
"[""4"",""2"",""3"",""1"",""4"",""4"",""2"",""3"",""1"",""4"",""4"",""2"",""3"",""1"",""4"",""4"",""2"",""3"",""1"",""4"",""4"",""2"",""3"",""1"",""4"",""4"",""2"",""3"",""1"",""4""]","[0.768,0.946,1.118,1.768,2.051,3.005,3.23,3.421,3.717,3.86,4.456,4.704,4.828,5.133,5.312,5.795,6.054,6.2,6.493,6.662,7.134,7.325,7.505,7.786,7.944,8.889,9.092,9.294,9.519,9.667]",0,10,10,10,1,42314,,10,1,2020-10-06_12h35.33.662,Sequence Training,2020.1.3,Win32,60
"[""4"",""1"",""3"",""2"",""4"",""4"",""1"",""3"",""2"",""4"",""4"",""1"",""3"",""2"",""4"",""4"",""1"",""3"",""2"",""4"",""4"",""1"",""3"",""2"",""4"",""4"",""1"",""3"",""2"",""4"",""4"",""1"",""3"",""2"",""4""]","[0.811,1.084,1.318,1.463,1.634,2.051,2.218,2.374,2.588,2.757,3.173,3.375,3.555,3.758,3.926,4.368,4.557,4.996,5.234,5.39,5.919,6.155,6.417,6.617,6.773,7.268,7.55,8.01,8.317,8.472,8.877,9.102,9.36,9.566,9.709]",0,11,11,11,1,41324,,0,1,2020-10-06_12h35.33.662,Sequence Training,2020.1.3,Win32,60
"[""4"",""2"",""3"",""1"",""4"",""4"",""2"",""3"",""1"",""4"",""4"",""2"",""3"",""1"",""4"",""4"",""2"",""3"",""1"",""4"",""4"",""2"",""3"",""1"",""4"",""4"",""2"",""3"",""1"",""4"",""4"",""2""]","[0.088,1.25,1.528,1.753,1.922,2.473,2.709,2.923,3.126,3.261,3.756,4.003,4.128,4.374,4.544,5.252,5.443,5.623,5.851,6.029,6.524,6.726,6.872,7.167,7.311,8.177,8.484,8.684,8.953,9.111,9.617,9.854]",0,12,12,12,1,42314,,10,1,2020-10-06_12h35.33.662,Sequence Training,2020.1.3,Win32,60
"[""4"",""1"",""3"",""2"",""4"",""4"",""1"",""3"",""2"",""4"",""4"",""1"",""3"",""2"",""4"",""4"",""1"",""3"",""2"",""4"",""4"",""1"",""3"",""2"",""4"",""4"",""1"",""3"",""2"",""4"",""4"",""1"",""3"",""2"",""4"",""4""]","[0.645,0.934,1.197,1.401,1.602,2.118,2.321,2.479,2.717,2.839,3.334,3.491,3.626,3.84,4.001,4.451,4.672,4.795,5.043,5.167,5.786,6.078,6.337,6.585,6.742,7.15,7.383,7.734,7.98,8.151,8.576,8.812,9.172,9.4,9.556,9.983]",0,13,13,13,1,41324,,0,1,2020-10-06_12h35.33.662,Sequence Training,2020.1.3,Win32,60
"[""1"",""4"",""2"",""3"",""1"",""4"",""4"",""2"",""3"",""1"",""4"",""4"",""2"",""3"",""1"",""4"",""4"",""2"",""3"",""4"",""4"",""4"",""2"",""3"",""1"",""4"",""4"",""2"",""3"",""1"",""4"",""4""]","[0.186,1.278,1.626,1.941,2.211,2.358,2.819,3.1,3.267,3.505,3.651,4.191,4.4,4.472,4.743,4.878,5.407,5.677,5.913,6.072,6.351,7.308,7.555,7.75,7.994,8.185,8.658,8.883,9.006,9.254,9.401,9.906]",0,14,14,14,1,42314,,10,1,2020-10-06_12h35.33.662,Sequence Training,2020.1.3,Win32,60
"[""4"",""1"",""3"",""2"",""4"",""4"",""1"",""3"",""2"",""4"",""4"",""1"",""3"",""2"",""4"",""4"",""1"",""3"",""2"",""4"",""4"",""1"",""3"",""2"",""4"",""4"",""1"",""3"",""2"",""4"",""4"",""1"",""3"",""2"",""4""]","[0.558,0.784,0.985,1.134,1.277,1.603,1.885,3.077,3.257,3.404,3.801,4.022,4.179,4.384,4.551,4.934,5.15,5.318,5.462,5.643,6.083,6.272,6.487,6.667,6.834,7.318,7.555,7.984,8.207,8.367,8.803,9.067,9.389,9.617,9.793]",0,15,15,15,1,41324,,10,1,2020-10-06_12h35.33.662,Sequence Training,2020.1.3,Win32,60
"[""4"",""1"",""3"",""2"",""4"",""4"",""1"",""3"",""2"",""4"",""4"",""1"",""3"",""2"",""4"",""4"",""1"",""3"",""2"",""4"",""4"",""1"",""3"",""2"",""4"",""4"",""1"",""3"",""2"",""4"",""4"",""1"",""3"",""4"",""2"",""4"",""1"",""3"",""2"",""4"",""4""]","[0.602,0.852,1.085,1.244,1.401,1.751,1.963,2.211,2.368,2.526,2.987,3.155,3.302,3.493,3.606,4.056,4.235,4.393,4.438,4.573,5.192,5.451,5.601,5.833,5.95,6.26,6.467,6.683,6.823,6.97,7.363,7.567,7.757,7.858,8.027,8.6,8.817,9.05,9.283,9.434,9.77]",0,16,16,16,1,41324,,10,1,2020-10-06_12h35.33.662,Sequence Training,2020.1.3,Win32,60
"[""4"",""1"",""3"",""2"",""4"",""4"",""1"",""3"",""4"",""2"",""4"",""4"",""1"",""3"",""2"",""4"",""4"",""1"",""3"",""2"",""4"",""4"",""1"",""4"",""3"",""2"",""4"",""4"",""1"",""3"",""2"",""4"",""4"",""1"",""3"",""2"",""4"",""4"",""1"",""3""]","[0.533,0.701,0.847,1.005,1.129,1.421,1.533,1.726,1.793,1.905,2.062,2.467,2.681,2.839,3.044,3.154,3.513,3.673,3.839,4.033,4.188,4.527,4.672,5.179,5.246,5.427,5.539,6.034,6.247,6.45,6.598,6.71,7.147,7.395,7.665,7.813,8.013,8.376,8.768,9.277]",0,17,17,17,1,41324,,10,1,2020-10-06_12h35.33.662,Sequence Training,2020.1.3,Win32,60
"[""4"",""1"",""3"",""2"",""4"",""4"",""1"",""3"",""2"",""4"",""4"",""1"",""3"",""2"",""4"",""4"",""1"",""3"",""2"",""4"",""4"",""1"",""3"",""2"",""4"",""4"",""1"",""3"",""2"",""4"",""4"",""1"",""3"",""2"",""4"",""4"",""1"",""3"",""2"",""4"",""4""]","[0.478,0.612,0.785,0.939,1.062,1.434,1.557,1.693,1.851,1.986,2.413,2.584,2.727,2.885,3,3.605,3.763,3.933,4.11,4.284,4.787,4.944,5.102,5.304,5.439,5.956,6.117,6.496,6.744,6.902,7.362,7.519,7.902,8.139,8.267,8.684,8.867,9.106,9.309,9.444,9.871]",0,18,18,18,1,41324,,10,1,2020-10-06_12h35.33.662,Sequence Training,2020.1.3,Win32,60
"[""4"",""1"",""3"",""2"",""4"",""4"",""1"",""3"",""2"",""4"",""4"",""1"",""3"",""2"",""4"",""4"",""1"",""3"",""2"",""4"",""4"",""1"",""3"",""2"",""4"",""4"",""1"",""3"",""2"",""4"",""4"",""1"",""3"",""2"",""4"",""4"",""1"",""3"",""2"",""4""]","[0.724,0.926,1.118,1.317,1.46,1.826,1.995,2.141,2.344,2.501,2.929,3.135,3.313,3.47,3.637,4.222,4.484,4.639,4.808,4.977,5.417,5.572,5.753,5.967,6.137,6.667,6.834,7.001,7.204,7.384,7.924,8.084,8.318,8.483,8.634,9.308,9.477,9.656,9.85,10.005]",0,19,19,19,1,41324,,10,1,2020-10-06_12h35.33.662,Sequence Training,2020.1.3,Win32,60
"[""4"",""1"",""3"",""2"",""4"",""4"",""1"",""3"",""2"",""4"",""4"",""1"",""3"",""2"",""4"",""4"",""1"",""3"",""2"",""3"",""4"",""4"",""1"",""3"",""2"",""4"",""4"",""1"",""3"",""2"",""4"",""4"",""1"",""3"",""2"",""4"",""4"",""1"",""3""]","[0.669,0.918,1.167,1.342,1.479,2.152,2.389,2.55,2.692,2.851,3.334,3.457,3.637,3.806,3.975,4.492,4.64,4.796,4.984,5.089,5.145,5.883,6.067,6.236,6.472,6.609,7.136,7.338,7.484,7.654,7.833,8.329,8.534,8.711,8.925,9.1,9.622,9.825,9.984]",0,20,20,20,1,41324,,10,1,2020-10-06_12h35.33.662,Sequence Training,2020.1.3,Win32,60
"[""4"",""1"",""2"",""3"",""4"",""4"",""1"",""3"",""2"",""4"",""4"",""1"",""3"",""2"",""4"",""4"",""1"",""3"",""2"",""4"",""4"",""1"",""2"",""3"",""4"",""2"",""3"",""4"",""2"",""4"",""3"",""4"",""1"",""3"",""2"",""4"",""4"",""1"",""3"",""2"",""4"",""4"",""1"",""3"",""2""]","[0.51,0.668,0.903,0.993,1.162,1.851,2.186,2.388,2.546,2.704,3.108,3.277,3.378,3.551,3.704,4.121,4.245,4.38,4.571,4.694,5.156,5.28,5.459,5.501,5.628,5.674,5.944,6.146,6.237,6.326,6.405,6.911,7.125,7.322,7.495,7.653,7.946,8.151,8.417,8.567,8.767,9.084,9.267,9.634,9.859]",0,21,21,21,1,41324,,0,1,2020-10-06_12h35.33.662,Sequence Training,2020.1.3,Win32,60
