Key_Response.keys,Key_Response.rt,trials.thisRepN,trials.thisTrialN,trials.thisN,trials.thisIndex,trials.ran,Sequences,Repeat,BreakTime,session,date,expName,psychopyVersion,OS,frameRate
"[""4"",""1"",""3"",""2"",""4"",""4"",""1"",""3"",""2"",""4"",""4"",""1"",""3"",""2"",""4"",""4"",""1"",""3"",""2"",""4"",""4"",""1"",""3"",""2"",""4"",""1"",""4""]","[1.025,1.301,1.712,2.057,2.505,2.881,3.397,4.259,4.479,4.761,5.031,5.576,5.926,6.126,6.359,6.585,6.81,7.105,7.331,7.563,7.746,7.941,8.201,8.39,8.65,9.345,9.61]",0,0,0,0,1,41324,,10,1,2020-12-29_13h53.33.017,Sequence Training,2020.1.3,Win32,60
"[""4"",""1"",""3"",""2"",""4"",""4"",""1"",""3"",""2"",""4"",""4"",""1"",""3"",""2"",""4"",""4"",""1"",""3"",""2"",""4"",""4"",""1"",""3"",""2"",""4"",""1"",""3"",""2"",""4"",""4"",""1"",""3"",""2"",""4"",""4""]","[0.79,0.99,1.361,1.561,1.79,2.005,2.494,2.8,3.006,3.262,3.471,3.776,4.062,4.242,4.494,4.701,4.953,5.261,5.449,5.672,5.869,6.058,6.309,6.482,6.747,6.961,7.842,8.048,8.229,8.579,8.843,9.11,9.393,9.662,9.941]",0,1,1,1,1,41324,,10,1,2020-12-29_13h53.33.017,Sequence Training,2020.1.3,Win32,60
"[""4"",""1"",""3"",""2"",""4"",""4"",""1"",""3"",""2"",""4"",""4"",""1"",""3"",""2"",""4"",""4"",""1"",""3"",""2"",""4"",""4"",""1"",""2"",""3"",""4"",""4"",""1""]","[0.697,0.908,1.535,1.774,2.416,2.707,3.035,3.854,4.075,4.325,4.536,4.723,4.949,5.127,5.349,5.537,5.711,6.54,6.743,6.897,7.75,7.979,8.321,9.098,9.298,9.603,9.965]",0,2,2,2,1,41324,,10,1,2020-12-29_13h53.33.017,Sequence Training,2020.1.3,Win32,60
"[""4"",""1"",""3"",""2"",""4"",""4"",""1"",""3"",""2"",""4"",""4"",""1"",""3"",""2"",""4"",""4"",""1"",""3"",""2"",""4"",""4"",""1"",""3"",""2"",""4"",""4"",""1"",""3"",""2"",""4"",""4"",""1"",""3""]","[0.534,0.757,1.028,1.225,1.437,1.653,1.877,2.157,2.336,2.558,3.131,3.344,3.838,4.011,4.224,4.572,4.838,5.172,5.403,5.659,6.121,6.847,7.244,7.479,7.745,7.986,8.239,8.567,8.787,9.042,9.279,9.479,9.898]",0,3,3,3,1,41324,,10,1,2020-12-29_13h53.33.017,Sequence Training,2020.1.3,Win32,60
"[""4"",""1"",""3"",""2"",""4"",""4"",""1"",""3"",""2"",""4"",""4"",""1"",""3"",""2"",""4"",""4"",""1"",""3"",""2"",""4"",""4"",""1"",""3"",""2"",""4"",""4"",""1"",""3"",""2"",""4"",""4"",""1"",""3"",""2"",""4"",""4"",""1"",""3"",""2""]","[0.587,0.805,1.043,1.216,1.422,1.621,1.829,2.07,2.253,2.461,2.666,2.897,3.174,3.349,3.527,3.72,3.924,4.193,4.455,4.949,5.201,5.441,6.088,6.297,6.516,6.734,6.913,7.32,7.535,7.734,7.964,8.149,8.482,8.668,8.883,9.097,9.285,9.696,9.964]",0,4,4,4,1,41324,,30,1,2020-12-29_13h53.33.017,Sequence Training,2020.1.3,Win32,60
"[""4"",""1"",""3"",""2"",""2"",""4"",""1"",""3"",""2"",""4"",""4"",""1"",""3"",""2"",""4"",""4"",""1"",""3"",""2"",""4"",""4"",""1"",""3"",""2"",""4"",""4"",""1"",""3"",""2"",""4""]","[0.941,1.109,1.337,1.519,1.724,2.417,2.615,3.149,3.319,3.586,3.83,4.039,4.284,4.453,4.654,4.839,5.04,5.363,6,6.297,6.493,6.712,7.04,7.32,7.68,7.88,8.171,8.854,9.099,9.868]",0,5,5,5,1,41324,,0,1,2020-12-29_13h53.33.017,Sequence Training,2020.1.3,Win32,60
"[""4"",""4"",""2"",""3"",""1"",""4"",""4"",""2"",""3"",""1"",""4"",""4"",""2"",""3"",""1"",""4"",""4"",""2"",""3"",""1"",""4"",""4"",""2"",""3"",""1"",""4"",""4""]","[0.03,1.534,1.961,2.306,2.534,2.798,3.099,3.497,3.804,4.093,4.337,4.618,4.933,5.173,5.361,5.576,5.821,6.756,7.036,7.241,7.514,8.16,8.761,8.994,9.168,9.383,9.619]",0,6,6,6,1,42314,,10,1,2020-12-29_13h53.33.017,Sequence Training,2020.1.3,Win32,60
"[""4"",""1"",""3"",""2"",""4"",""4"",""1"",""3"",""2"",""4"",""4"",""1"",""3"",""2"",""4"",""4"",""1""]","[6.428,6.669,7.016,7.22,7.417,7.584,7.743,7.987,8.16,8.359,8.55,8.737,8.984,9.148,9.346,9.517,9.698]",0,7,7,7,1,41324,,0,1,2020-12-29_13h53.33.017,Sequence Training,2020.1.3,Win32,60
"[""4"",""2"",""3"",""1"",""4"",""4"",""2"",""3"",""1"",""4"",""4"",""2"",""3"",""1"",""4"",""4"",""2"",""3"",""1"",""4"",""4"",""2"",""3"",""1"",""4"",""4"",""2"",""3"",""1""]","[1.041,1.336,1.652,1.851,2.213,2.643,3.424,3.669,3.841,4.081,4.312,4.651,4.913,5.372,5.601,5.974,6.327,6.58,6.772,7.002,7.167,7.964,8.23,8.419,8.66,8.878,9.153,9.51,9.667]",0,8,8,8,1,42314,,10,1,2020-12-29_13h53.33.017,Sequence Training,2020.1.3,Win32,60
"[""4"",""1"",""3"",""2"",""4"",""4"",""1"",""3"",""2"",""4"",""4"",""1"",""3"",""2"",""4"",""4"",""1"",""3"",""2"",""4"",""4"",""1"",""3"",""2"",""4"",""4"",""1"",""3"",""2"",""4"",""4"",""1"",""4"",""3"",""2""]","[0.62,0.819,1.08,1.256,1.456,1.628,1.78,2.004,2.164,2.337,2.508,2.656,2.895,3.069,3.246,3.428,3.608,3.903,4.099,4.281,4.447,4.656,5.66,5.843,6.058,6.243,6.442,6.749,7.123,7.357,7.561,7.762,8.628,9.681,10.005]",0,9,9,9,1,41324,,0,1,2020-12-29_13h53.33.017,Sequence Training,2020.1.3,Win32,60
"[""4"",""2"",""3"",""1"",""4"",""2"",""3"",""4"",""1"",""2"",""4"",""1"",""2"",""3"",""4"",""2"",""3"",""1"",""4"",""4"",""2"",""3"",""1"",""4""]","[1.304,1.49,1.69,1.787,2.053,2.637,3.704,3.949,4.145,4.557,4.957,5.199,5.476,5.658,5.986,6.611,7.402,7.588,7.814,8.586,8.867,9.079,9.239,9.466]",0,10,10,10,1,42314,,10,1,2020-12-29_13h53.33.017,Sequence Training,2020.1.3,Win32,60
"[""4"",""1"",""3"",""2"",""4"",""4"",""1"",""2"",""3"",""2"",""4"",""4"",""1"",""3"",""2"",""4"",""4"",""1"",""2"",""3"",""4"",""1"",""1"",""4"",""3"",""2"",""1""]","[0.977,1.162,1.378,1.539,1.698,1.871,2.035,2.661,3.457,3.614,4.057,4.495,4.86,5.209,5.401,5.577,5.87,6.167,6.696,7.156,7.365,7.643,8.657,9.015,9.429,9.579,9.816]",0,11,11,11,1,41324,,0,1,2020-12-29_13h53.33.017,Sequence Training,2020.1.3,Win32,60
"[""4"",""4"",""2"",""3"",""1"",""4"",""4"",""2"",""3"",""1"",""4"",""4"",""2"",""3"",""1"",""4"",""4"",""2"",""3"",""1"",""4"",""4"",""2"",""3"",""1"",""4"",""4"",""2"",""3"",""1"",""4""]","[0.2,0.985,1.319,1.51,1.667,1.869,2.521,2.845,3.067,3.246,3.611,4.257,4.535,4.804,5.005,5.252,5.558,6.068,6.308,6.486,6.704,7.109,7.407,7.625,7.807,8.081,8.295,9.135,9.335,9.499,9.752]",0,12,12,12,1,42314,,10,1,2020-12-29_13h53.33.017,Sequence Training,2020.1.3,Win32,60
"[""4"",""1"",""3"",""2"",""4"",""4"",""1"",""3"",""2"",""4"",""4"",""1"",""3"",""2"",""4"",""4"",""1"",""2"",""3"",""3"",""4"",""4"",""1"",""3"",""2"",""4"",""4"",""1"",""3"",""2""]","[0.736,1.015,1.672,1.826,2.034,2.23,2.444,2.704,2.864,3.04,3.233,3.441,4.057,4.218,4.405,4.593,5.385,5.708,6.352,6.547,6.717,7.443,7.777,8.08,8.298,8.54,8.753,9.027,9.59,9.79]",0,13,13,13,1,41324,,0,1,2020-12-29_13h53.33.017,Sequence Training,2020.1.3,Win32,60
"[""4"",""2"",""3"",""1"",""4"",""4"",""2"",""3"",""1"",""4"",""4"",""2"",""3"",""1"",""4"",""4"",""2"",""3"",""1"",""4"",""4"",""2"",""3"",""1"",""4"",""4"",""2"",""3"",""1"",""4"",""4"",""2"",""3"",""1"",""4"",""4"",""2"",""3""]","[0.956,1.194,1.404,1.584,1.859,2.196,2.478,2.703,2.925,3.284,3.802,4.244,4.486,4.697,4.902,5.142,5.388,5.603,5.787,5.972,6.17,6.371,6.559,6.775,6.988,7.244,7.45,7.661,7.832,8.03,8.241,8.429,8.629,8.825,9.07,9.335,9.615,9.885]",0,14,14,14,1,42314,,10,1,2020-12-29_13h53.33.017,Sequence Training,2020.1.3,Win32,60
"[""4"",""1"",""2"",""3"",""4"",""4"",""1"",""3"",""2"",""4"",""4"",""1"",""3"",""2"",""4"",""4"",""1"",""3"",""2"",""4"",""4"",""1"",""3"",""2"",""4"",""4"",""1"",""4"",""3"",""2"",""1"",""1""]","[0.72,0.979,1.334,2.285,2.52,2.992,3.363,3.668,3.84,4.016,4.203,4.364,4.954,5.121,5.328,5.524,5.716,6.001,6.177,6.366,6.564,6.764,7.016,7.236,7.439,7.617,7.777,8.016,8.502,8.698,8.938,9.741]",0,15,15,15,1,41324,,10,1,2020-12-29_13h53.33.017,Sequence Training,2020.1.3,Win32,60
"[""4"",""1"",""3"",""2"",""4"",""4"",""1"",""3"",""2"",""4"",""4"",""1"",""3"",""2"",""4"",""4"",""1"",""3"",""2"",""4"",""4"",""1"",""3"",""2"",""4"",""1"",""4"",""1"",""3"",""2"",""4"",""4"",""1""]","[0.905,1.149,1.592,1.8,2.005,2.211,2.411,2.618,2.764,2.974,3.186,3.388,3.826,4.026,4.216,4.656,4.906,5.201,5.404,5.601,5.788,5.986,6.52,6.697,6.905,7.135,7.759,8.074,8.614,8.816,9.016,9.215,9.454]",0,16,16,16,1,41324,,10,1,2020-12-29_13h53.33.017,Sequence Training,2020.1.3,Win32,60
"[""4"",""1"",""3"",""2"",""4"",""4"",""1"",""3"",""2"",""4"",""4"",""1"",""3"",""2"",""4"",""4"",""1"",""3"",""2"",""4"",""4"",""1"",""3"",""2"",""4"",""4"",""1"",""1"",""3"",""2"",""4"",""4"",""1""]","[0.73,0.935,1.189,1.37,1.57,1.763,1.952,2.18,2.361,2.552,2.727,2.893,3.264,3.489,3.69,4.101,4.411,4.727,4.926,5.124,5.31,5.53,6.2,6.431,6.691,6.892,7.244,8.421,9.091,9.282,9.511,9.727,10.008]",0,17,17,17,1,41324,,10,1,2020-12-29_13h53.33.017,Sequence Training,2020.1.3,Win32,60
"[""4"",""1"",""3"",""2"",""4"",""4"",""1"",""3"",""2"",""4"",""4"",""1"",""3"",""2"",""4"",""4"",""1"",""3"",""2"",""4"",""4"",""1"",""4"",""1"",""3"",""2"",""4"",""4"",""1"",""3"",""2"",""4"",""4"",""1""]","[0.82,1.003,1.233,1.361,1.573,1.732,1.914,2.132,2.277,2.439,2.61,2.779,3.003,3.192,3.37,3.535,3.72,4.163,4.35,4.548,4.723,5.12,5.797,6.468,7,7.188,7.371,7.549,7.793,8.386,8.555,8.762,8.937,9.27]",0,18,18,18,1,41324,,10,1,2020-12-29_13h53.33.017,Sequence Training,2020.1.3,Win32,60
"[""4"",""1"",""3"",""2"",""4"",""4"",""1"",""3"",""2"",""4"",""4"",""1"",""3"",""2"",""4"",""4"",""1"",""3"",""2"",""4"",""4"",""1"",""3"",""2"",""4"",""4"",""1"",""3"",""2"",""4"",""4"",""4"",""1"",""3"",""2"",""4"",""4"",""1""]","[0.814,1.014,1.234,1.414,1.6,1.786,1.96,2.193,2.376,2.548,2.722,2.904,3.243,3.434,3.612,3.786,4.019,4.409,4.592,4.785,4.961,5.191,5.538,5.741,5.945,6.126,6.332,6.782,6.986,7.185,7.379,7.55,8.204,8.493,8.652,8.847,9.467,9.663]",0,19,19,19,1,41324,,10,1,2020-12-29_13h53.33.017,Sequence Training,2020.1.3,Win32,60
"[""4"",""1"",""3"",""2"",""4"",""4"",""1"",""3"",""2"",""4"",""4"",""1"",""3"",""2"",""4"",""4"",""1"",""3"",""2"",""4"",""4"",""1"",""3"",""2"",""4"",""4"",""1"",""3"",""2"",""4"",""1"",""4"",""4"",""1"",""3""]","[0.59,0.791,1.122,1.313,1.532,1.722,1.952,2.232,2.405,2.603,2.804,3.036,3.317,3.524,3.735,3.912,4.096,4.339,4.554,4.729,4.914,5.111,5.363,5.643,5.937,6.124,6.325,7.742,7.91,8.089,8.354,8.725,8.893,9.141,9.971]",0,20,20,20,1,41324,,10,1,2020-12-29_13h53.33.017,Sequence Training,2020.1.3,Win32,60
"[""4"",""1"",""3"",""2"",""4"",""4"",""1"",""3"",""2"",""4"",""4"",""1"",""3"",""2"",""4"",""4"",""1"",""3"",""2"",""4"",""4"",""1"",""3"",""2"",""4"",""4"",""1"",""3"",""2"",""4"",""4"",""1"",""3"",""2"",""4"",""4"",""1""]","[0.53,0.745,1.066,1.282,1.521,1.734,1.942,2.188,2.344,2.558,2.757,2.948,3.726,3.904,4.158,4.344,4.558,5.201,5.411,6.151,6.336,6.522,6.789,7.018,7.268,7.439,7.67,7.946,8.107,8.321,8.506,8.668,8.959,9.194,9.469,9.653,9.947]",0,21,21,21,1,41324,,0,1,2020-12-29_13h53.33.017,Sequence Training,2020.1.3,Win32,60
