Key_Response.keys,Key_Response.rt,trials.thisRepN,trials.thisTrialN,trials.thisN,trials.thisIndex,trials.ran,Sequences,Repeat,BreakTime,session,date,expName,psychopyVersion,OS,frameRate,Keys_QuestionareQ1.keys,Keys_QuestionareQ1.rt,Keys_QuestionareQ2.keys,Keys_QuestionareQ2.rt,Keys_QuestionareQ3.keys,Keys_QuestionareQ3.rt
"[""4"",""1"",""3"",""2"",""4"",""4"",""1"",""3"",""2"",""4"",""4"",""1"",""3""]","[1.151,1.754,2.696,3.279,3.891,4.312,5.347,6.228,7.156,7.578,8.24,8.91,9.539]",0.0,0.0,0.0,0.0,1.0,41324.0,,10.0,1,2021-01-12_16h48.28.221,Sequence Training,2020.1.3,Win32,60,,,,,,
"[""4"",""1"",""3"",""2"",""4"",""4"",""1"",""3"",""2"",""4"",""4"",""1"",""3"",""2"",""4"",""4"",""1""]","[0.648,1.1,1.909,2.498,2.905,3.632,3.955,4.769,5.208,5.562,6.058,7.191,8.23,8.747,9.168,9.593,9.968]",0.0,1.0,1.0,1.0,1.0,41324.0,,10.0,1,2021-01-12_16h48.28.221,Sequence Training,2020.1.3,Win32,60,,,,,,
"[""4"",""1"",""3"",""2"",""4"",""4"",""1"",""3"",""2"",""4"",""4"",""1"",""3"",""2"",""4""]","[1.582,1.961,2.878,3.544,4.297,5.044,5.816,6.603,7.113,7.498,7.942,8.302,8.951,9.304,9.736]",0.0,2.0,2.0,2.0,1.0,41324.0,,10.0,1,2021-01-12_16h48.28.221,Sequence Training,2020.1.3,Win32,60,,,,,,
"[""4"",""1"",""3"",""2"",""4"",""4"",""1"",""3"",""2"",""4"",""4"",""1""]","[1.234,3.111,3.894,4.447,5.313,6.022,6.415,7.26,8.22,8.618,9.645,9.978]",0.0,3.0,3.0,3.0,1.0,41324.0,,10.0,1,2021-01-12_16h48.28.221,Sequence Training,2020.1.3,Win32,60,,,,,,
"[""4"",""1"",""3"",""2"",""4"",""4"",""1"",""3"",""2"",""4"",""4"",""1"",""3"",""2"",""4"",""4"",""1"",""3"",""2"",""4""]","[0.994,1.357,1.918,2.59,2.973,3.35,3.839,4.574,5.011,5.339,5.698,6.022,6.566,6.922,7.447,7.909,8.24,8.906,9.311,9.807]",0.0,4.0,4.0,4.0,1.0,41324.0,,30.0,1,2021-01-12_16h48.28.221,Sequence Training,2020.1.3,Win32,60,,,,,,
"[""4"",""1"",""3"",""2"",""4"",""4"",""1"",""3"",""2"",""4"",""4"",""1"",""3"",""2"",""4"",""4"",""1"",""3"",""2"",""4"",""4""]","[0.622,1.467,1.889,2.35,2.775,3.183,3.566,4.106,4.508,4.893,5.37,5.649,6.155,6.515,6.92,7.315,7.598,8.098,8.504,8.951,9.772]",0.0,5.0,5.0,5.0,1.0,41324.0,,0.0,1,2021-01-12_16h48.28.221,Sequence Training,2020.1.3,Win32,60,,,,,,
"[""4"",""2"",""3"",""1"",""4"",""4"",""2"",""3"",""1"",""4"",""4"",""2"",""3"",""1"",""4"",""4""]","[1.201,2.184,2.606,3.521,3.918,4.466,4.916,5.642,6.066,6.465,6.987,7.749,8.405,8.787,9.165,9.607]",0.0,6.0,6.0,6.0,1.0,42314.0,,10.0,1,2021-01-12_16h48.28.221,Sequence Training,2020.1.3,Win32,60,,,,,,
"[""4"",""1"",""3"",""2"",""4"",""4"",""1"",""4"",""2"",""4"",""4"",""1"",""3"",""2"",""4""]","[1.018,1.734,3.039,3.501,3.849,4.283,4.765,5.383,6.186,6.473,7.688,8.271,8.781,9.015,9.357]",0.0,7.0,7.0,7.0,1.0,41324.0,,0.0,1,2021-01-12_16h48.28.221,Sequence Training,2020.1.3,Win32,60,,,,,,
"[""4"",""2"",""3"",""1"",""4"",""4"",""2"",""3"",""1"",""4"",""4"",""2"",""3""]","[1.068,1.368,1.611,2.467,2.756,3.717,4.135,4.386,5.343,5.805,8.017,9.224,9.574]",0.0,8.0,8.0,8.0,1.0,42314.0,,10.0,1,2021-01-12_16h48.28.221,Sequence Training,2020.1.3,Win32,60,,,,,,
"[""4"",""1"",""3"",""2"",""4"",""4"",""1"",""3"",""2"",""4"",""4"",""1"",""3"",""2"",""4"",""4"",""1"",""3"",""2"",""4""]","[0.687,1.161,1.818,2.656,3.003,3.723,4.317,4.804,5.083,5.591,6.051,6.417,7.032,7.482,7.865,8.315,8.599,9.065,9.336,9.691]",0.0,9.0,9.0,9.0,1.0,41324.0,,0.0,1,2021-01-12_16h48.28.221,Sequence Training,2020.1.3,Win32,60,,,,,,
"[""4"",""2"",""3"",""1"",""4"",""4"",""2"",""3"",""3"",""1"",""3"",""4"",""2"",""3"",""3"",""1"",""4"",""4""]","[0.856,1.211,1.535,2.184,2.745,3.183,4.258,4.533,5.156,5.507,6.068,7.335,7.835,8.04,8.558,9.114,9.372,9.886]",0.0,10.0,10.0,10.0,1.0,42314.0,,10.0,1,2021-01-12_16h48.28.221,Sequence Training,2020.1.3,Win32,60,,,,,,
"[""4"",""1"",""3"",""2"",""4"",""4"",""1"",""3"",""2"",""4"",""4"",""1"",""3""]","[1.769,2.292,3.1,3.904,4.583,5.804,6.194,7.117,7.7,8.086,8.569,8.936,9.698]",0.0,11.0,11.0,11.0,1.0,41324.0,,0.0,1,2021-01-12_16h48.28.221,Sequence Training,2020.1.3,Win32,60,,,,,,
"[""2"",""4"",""2"",""3"",""1"",""4"",""4"",""2"",""3"",""1"",""4"",""4"",""2"",""3"",""1"",""4""]","[0.15,1.574,2.75,3.224,4.016,4.341,4.803,5.427,6.037,6.465,6.828,7.482,8.116,8.586,8.949,9.319]",0.0,12.0,12.0,12.0,1.0,42314.0,,10.0,1,2021-01-12_16h48.28.221,Sequence Training,2020.1.3,Win32,60,,,,,,
"[""4"",""1"",""3"",""2"",""4"",""4"",""1"",""3"",""3"",""3"",""4"",""4""]","[1.402,3.542,4.225,4.633,5.016,5.673,6.077,6.567,8.135,8.947,9.155,9.924]",0.0,13.0,13.0,13.0,1.0,41324.0,,0.0,1,2021-01-12_16h48.28.221,Sequence Training,2020.1.3,Win32,60,,,,,,
"[""4"",""2"",""3"",""1"",""4"",""4"",""2"",""3"",""1"",""4"",""4"",""2""]","[0.952,1.343,1.65,1.944,2.285,5.383,6.044,6.542,6.868,7.15,8.798,9.202]",0.0,14.0,14.0,14.0,1.0,42314.0,,10.0,1,2021-01-12_16h48.28.221,Sequence Training,2020.1.3,Win32,60,,,,,,
"[""4"",""1"",""3"",""2"",""4"",""4"",""1"",""3"",""2"",""4"",""4"",""1"",""3"",""2"",""4"",""4""]","[0.869,1.641,2.461,2.892,3.274,3.816,4.204,5.116,5.623,5.925,6.399,6.715,7.431,7.948,8.892,9.63]",0.0,15.0,15.0,15.0,1.0,41324.0,,10.0,1,2021-01-12_16h48.28.221,Sequence Training,2020.1.3,Win32,60,,,,,,
"[""4"",""1"",""3"",""2"",""4"",""4"",""1"",""3"",""2"",""4"",""4"",""1"",""3"",""2"",""4""]","[1.321,1.679,2.922,3.285,3.663,4.147,4.518,5.286,5.699,6.5,7.284,7.929,9.113,9.451,9.811]",0.0,16.0,16.0,16.0,1.0,41324.0,,10.0,1,2021-01-12_16h48.28.221,Sequence Training,2020.1.3,Win32,60,,,,,,
"[""4"",""1"",""3"",""2"",""4"",""4"",""1"",""3"",""2"",""4"",""4"",""1"",""3"",""2"",""3"",""4""]","[0.901,1.384,2.056,2.561,2.813,3.167,4.11,4.785,5.483,5.989,7.426,7.833,8.276,8.576,8.878,9.361]",0.0,17.0,17.0,17.0,1.0,41324.0,,10.0,1,2021-01-12_16h48.28.221,Sequence Training,2020.1.3,Win32,60,,,,,,
"[""4"",""1"",""3"",""2"",""4"",""4"",""1"",""3"",""2"",""4"",""4"",""1"",""3"",""2"",""4"",""4"",""1"",""3"",""2"",""2"",""3"",""4""]","[0.854,1.207,1.67,2.437,2.754,3.147,3.486,3.945,4.296,4.669,5.164,5.519,6.008,6.352,6.754,7.485,7.835,8.318,8.593,8.777,9.326,10.027]",0.0,18.0,18.0,18.0,1.0,41324.0,,10.0,1,2021-01-12_16h48.28.221,Sequence Training,2020.1.3,Win32,60,,,,,,
"[""4"",""1"",""3"",""2"",""4"",""4"",""1"",""3"",""2"",""4"",""4"",""1"",""3"",""2"",""4"",""4""]","[0.558,0.954,1.752,2.118,2.463,2.916,3.251,4.149,4.631,5.237,6.252,6.796,7.472,7.913,8.566,9.943]",0.0,19.0,19.0,19.0,1.0,41324.0,,10.0,1,2021-01-12_16h48.28.221,Sequence Training,2020.1.3,Win32,60,,,,,,
"[""4"",""1"",""3"",""2"",""4"",""4"",""1"",""3"",""2"",""4"",""4"",""1""]","[0.539,0.921,1.658,2.978,3.353,4.314,5.961,7.405,7.829,8.263,8.755,9.054]",0.0,20.0,20.0,20.0,1.0,41324.0,,10.0,1,2021-01-12_16h48.28.221,Sequence Training,2020.1.3,Win32,60,,,,,,
"[""4"",""1"",""3"",""2"",""4"",""4"",""1"",""3"",""2"",""4"",""4"",""1"",""3"",""2"",""4"",""4""]","[0.564,0.969,1.542,2.364,2.797,3.698,4.111,4.543,4.861,5.577,6.257,6.625,7.051,8.057,8.369,9.619]",0.0,21.0,21.0,21.0,1.0,41324.0,,0.0,1,2021-01-12_16h48.28.221,Sequence Training,2020.1.3,Win32,60,,,,,,
,,,,,,,,,,1,2021-01-12_16h48.28.221,Sequence Training,2020.1.3,Win32,60,n,4.3877,n,1.93715,l,3.801905
