Key_Response.keys,Key_Response.rt,trials.thisRepN,trials.thisTrialN,trials.thisN,trials.thisIndex,trials.ran,Sequences,Repeat,BreakTime,session,date,expName,psychopyVersion,OS,frameRate
"[""4"",""1"",""3"",""2"",""4"",""4"",""1"",""3"",""2"",""4"",""4"",""1"",""3"",""2"",""4"",""4"",""1"",""3"",""2"",""4"",""4"",""1"",""3"",""2"",""4"",""4"",""1"",""3"",""2""]","[0.714,1.002,1.347,1.444,1.743,2.133,2.596,2.798,3.043,4.066,4.678,4.879,5.193,5.407,5.706,6.189,6.423,6.727,6.909,7.548,7.771,8.155,8.545,8.718,9.025,9.274,9.604,9.836,10.017]",0,0,0,0,1,41324,,10,1,2020-10-06_08h03.10.727,Sequence Training,2020.1.3,Win32,60
"[""4"",""1"",""2"",""2"",""4"",""4"",""1"",""3"",""2"",""4"",""4"",""1"",""3"",""2"",""4"",""4"",""1"",""3"",""2"",""4"",""4"",""1"",""3"",""2"",""4"",""4"",""1"",""3"",""2"",""3"",""4"",""4"",""1"",""3"",""2"",""4"",""4""]","[0.554,0.715,0.983,1.998,2.305,2.697,2.879,3.103,3.262,3.48,3.761,3.948,4.183,4.362,4.895,5.128,5.326,5.549,5.686,5.877,6.161,6.396,6.652,6.792,6.973,7.217,7.409,7.59,7.664,7.752,8.177,8.513,8.809,9.064,9.223,9.506,9.806]",0,1,1,1,1,41324,,10,1,2020-10-06_08h03.10.727,Sequence Training,2020.1.3,Win32,60
"[""4"",""1"",""3"",""2"",""4"",""4"",""1"",""3"",""2"",""4"",""4"",""1"",""3"",""2"",""4"",""4"",""1"",""3"",""2"",""4"",""4"",""1"",""3"",""2"",""4"",""4"",""1"",""3"",""2"",""4"",""4"",""1"",""3"",""2"",""4"",""4"",""1"",""3"",""2"",""4"",""4"",""1"",""3""]","[0.535,0.684,0.906,1.131,1.275,1.547,1.74,1.946,2.081,2.269,2.548,2.768,3.017,3.165,3.43,3.707,4.046,4.289,4.416,4.612,4.878,5.087,5.296,5.547,5.696,5.962,6.446,6.737,6.894,7.052,7.352,7.548,7.817,8.003,8.159,8.365,8.593,8.786,8.933,9.108,9.318,9.567,9.899]",0,2,2,2,1,41324,,10,1,2020-10-06_08h03.10.727,Sequence Training,2020.1.3,Win32,60
"[""4"",""1"",""3"",""2"",""4"",""4"",""1"",""3"",""2"",""4"",""4"",""1"",""3"",""2"",""4"",""4"",""1"",""3"",""2"",""4"",""4"",""1"",""3"",""2"",""4"",""4"",""1"",""3"",""2"",""4"",""4"",""1"",""3"",""2"",""4"",""4"",""1"",""3"",""2"",""4"",""4"",""1"",""3"",""2"",""4"",""4"",""1"",""3""]","[0.524,0.682,0.891,1.134,1.284,1.515,1.755,1.999,2.115,2.348,2.581,2.765,2.965,3.073,3.25,3.505,3.663,3.867,4.018,4.279,4.528,4.814,5.028,5.168,5.34,5.589,5.764,5.953,6.094,6.244,6.477,6.662,6.843,6.987,7.162,7.436,7.62,7.81,7.899,8.091,8.414,8.593,8.775,8.86,9.026,9.334,9.514,9.727]",0,3,3,3,1,41324,,10,1,2020-10-06_08h03.10.727,Sequence Training,2020.1.3,Win32,60
"[""4"",""1"",""3"",""2"",""4"",""4"",""1"",""3"",""2"",""4"",""4"",""1"",""3"",""2"",""4"",""4"",""1"",""3"",""2"",""4"",""4"",""1"",""3"",""2"",""4"",""4"",""1"",""3"",""2"",""4"",""4"",""1"",""3"",""2"",""4"",""4"",""1"",""3"",""2"",""4"",""4"",""1"",""3"",""2"",""4"",""4"",""1"",""3""]","[0.398,0.525,0.717,0.901,1.03,1.253,1.539,1.766,1.88,2.013,2.248,2.472,2.655,2.764,2.978,3.188,3.38,3.621,3.762,3.895,4.163,4.411,4.571,4.653,4.844,5.179,5.347,5.576,5.733,5.846,6.127,6.31,6.493,6.582,6.76,7.013,7.2,7.408,7.559,7.774,8.172,8.344,8.693,8.798,8.963,9.222,9.706,9.977]",0,4,4,4,1,41324,,30,1,2020-10-06_08h03.10.727,Sequence Training,2020.1.3,Win32,60
"[""4"",""1"",""3"",""2"",""4"",""4"",""1"",""3"",""2"",""4"",""4"",""1"",""3"",""2"",""4"",""4"",""1"",""3"",""2"",""4"",""4"",""1"",""3"",""2"",""4"",""4"",""1"",""3"",""2"",""4"",""4"",""1"",""3"",""2"",""4"",""4"",""1"",""3"",""2"",""4"",""4"",""1"",""3"",""2""]","[0.568,0.757,0.968,1.104,1.265,1.5,1.75,1.946,2.08,2.252,2.499,2.682,2.896,3.03,3.139,3.413,3.631,3.85,4.047,4.196,4.462,4.744,4.981,5.113,5.313,5.911,6.078,6.332,6.494,6.653,6.96,7.163,7.409,7.574,7.727,8.03,8.316,8.51,8.694,8.957,9.209,9.606,9.822,9.957]",0,5,5,5,1,41324,,0,1,2020-10-06_08h03.10.727,Sequence Training,2020.1.3,Win32,60
"[""4"",""4"",""1"",""3"",""1"",""4"",""4"",""2"",""3"",""1"",""4"",""4"",""1"",""3"",""1"",""4"",""4"",""2"",""3"",""1"",""4"",""4"",""2"",""3"",""1"",""4"",""4"",""1"",""3"",""1"",""4""]","[0.073,0.785,0.96,2.151,2.318,2.571,2.814,3.303,3.465,3.681,3.847,4.186,4.341,5.211,5.434,5.59,5.88,6.177,6.337,6.566,6.749,7.076,7.378,7.515,7.812,8.076,8.366,8.599,9.3,9.559,9.844]",0,6,6,6,1,42314,,10,1,2020-10-06_08h03.10.727,Sequence Training,2020.1.3,Win32,60
"[""4"",""2"",""3"",""2"",""4"",""4"",""1"",""3"",""2"",""4"",""4"",""1"",""3"",""2"",""4"",""4"",""1"",""3"",""2"",""4"",""4"",""1"",""3"",""2"",""4"",""4"",""1"",""3"",""2"",""4"",""4"",""1"",""3"",""2"",""4"",""4"",""1"",""3"",""2"",""4""]","[0.253,0.485,1.647,1.787,2.033,2.282,2.469,2.713,2.834,2.988,3.238,3.635,3.92,3.998,4.193,4.461,4.685,4.977,5.095,5.23,5.489,5.692,5.936,6.063,6.171,6.544,6.775,7.102,7.192,7.358,7.646,7.86,8.293,8.408,8.59,8.926,9.35,9.64,9.776,9.93]",0,7,7,7,1,41324,,0,1,2020-10-06_08h03.10.727,Sequence Training,2020.1.3,Win32,60
"[""4"",""2"",""3"",""1"",""4"",""4"",""2"",""3"",""1"",""4"",""4"",""2"",""3"",""1"",""4"",""4"",""2"",""3"",""1"",""4"",""4"",""2"",""3"",""1"",""4"",""4"",""2"",""3"",""1"",""4"",""4"",""2"",""3"",""1"",""4"",""4"",""2"",""3"",""1"",""4""]","[0.176,1.034,1.231,1.382,1.525,2.019,2.313,2.551,2.719,2.899,3.185,3.453,3.602,3.952,4.149,4.546,4.752,4.89,5.112,5.26,5.61,5.897,6.154,6.366,6.527,6.88,7.178,7.327,7.507,7.634,7.985,8.209,8.335,8.514,8.628,9.124,9.3,9.447,9.692,9.823]",0,8,8,8,1,42314,,10,1,2020-10-06_08h03.10.727,Sequence Training,2020.1.3,Win32,60
"[""4"",""1"",""3"",""2"",""4"",""4"",""1"",""3"",""2"",""4"",""4"",""1"",""3"",""2"",""4"",""4"",""1"",""3"",""2"",""4"",""4"",""1"",""3"",""2"",""4"",""4"",""1"",""3"",""2"",""3"",""4"",""1"",""3"",""2"",""4"",""4"",""1"",""3"",""2"",""4"",""4""]","[0.583,0.746,0.998,1.12,1.255,1.519,1.73,2.003,2.132,2.231,2.514,2.689,3.006,3.136,3.217,3.546,3.743,4.064,4.182,4.321,4.61,4.91,5.251,5.36,5.485,5.841,6.107,6.543,6.642,6.79,7.412,7.699,8.127,8.217,8.362,8.672,8.971,9.325,9.441,9.6,9.931]",0,9,9,9,1,41324,,0,1,2020-10-06_08h03.10.727,Sequence Training,2020.1.3,Win32,60
"[""1"",""2"",""3"",""1"",""4"",""4"",""2"",""3"",""1"",""4"",""4"",""2"",""3"",""1"",""4"",""4"",""2"",""3"",""1"",""4"",""4"",""2"",""3"",""1"",""4"",""4"",""2"",""3"",""1"",""4"",""4"",""2"",""3"",""1"",""4"",""4"",""2"",""3"",""1"",""4"",""4"",""2"",""3""]","[0.102,0.976,1.188,1.342,1.486,1.766,2.084,2.209,2.418,2.603,2.931,3.153,3.266,3.464,3.605,4.18,4.406,4.565,4.734,4.856,5.231,5.463,5.58,5.779,5.94,6.28,6.446,6.606,6.764,6.853,7.212,7.443,7.552,7.793,7.893,8.288,8.445,8.562,8.819,8.893,9.309,9.627,9.764]",0,10,10,10,1,42314,,10,1,2020-10-06_08h03.10.727,Sequence Training,2020.1.3,Win32,60
"[""4"",""1"",""3"",""2"",""4"",""4"",""1"",""3"",""2"",""4"",""4"",""1"",""3"",""2"",""4"",""4"",""1"",""3"",""2"",""4"",""4"",""1"",""3"",""2"",""4"",""4"",""1"",""3"",""2"",""4"",""4"",""1"",""3"",""2"",""4"",""4"",""1"",""3"",""2"",""4""]","[0.479,0.649,0.914,1.096,1.482,1.966,2.202,2.51,2.628,2.78,3.036,3.308,3.675,3.799,3.963,4.225,4.459,4.811,4.943,5.078,5.393,5.741,6.098,6.208,6.339,6.608,6.872,7.192,7.281,7.423,7.728,7.972,8.286,8.405,8.521,8.859,9.062,9.439,9.537,9.685]",0,11,11,11,1,41324,,0,1,2020-10-06_08h03.10.727,Sequence Training,2020.1.3,Win32,60
"[""4"",""2"",""3"",""1"",""4"",""4"",""2"",""3"",""1"",""4"",""4"",""2"",""3"",""1"",""4"",""4"",""2"",""3"",""1"",""4"",""4"",""2"",""3"",""1"",""4"",""4"",""2"",""3"",""1"",""4"",""4"",""2"",""3"",""1"",""4"",""4"",""2"",""3"",""1"",""4"",""4"",""2"",""3"",""1"",""4"",""4""]","[0.019,0.783,0.958,1.115,1.268,1.616,1.928,2.051,2.255,2.389,2.766,2.933,3.016,3.233,3.301,3.685,3.958,4.047,4.246,4.339,4.766,4.94,5.03,5.22,5.33,5.779,6.017,6.115,6.361,6.505,6.963,7.162,7.328,7.497,7.614,7.965,8.161,8.298,8.463,8.6,8.949,9.084,9.217,9.378,9.459,9.927]",0,12,12,12,1,42314,,10,1,2020-10-06_08h03.10.727,Sequence Training,2020.1.3,Win32,60
"[""4"",""1"",""3"",""2"",""4"",""4"",""1"",""3"",""2"",""4"",""4"",""1"",""3"",""2"",""4"",""4"",""1"",""3"",""2"",""4"",""4"",""1"",""3"",""2"",""4"",""4"",""1"",""3"",""2"",""4"",""4"",""1"",""3"",""2"",""4"",""4"",""1"",""3"",""2"",""4"",""4""]","[0.464,0.651,0.961,1.071,1.169,1.444,1.73,1.959,2.068,2.203,2.494,2.742,3.086,3.196,3.327,3.684,4.112,4.409,4.525,4.841,5.181,5.408,5.729,5.806,5.948,6.226,6.688,6.938,7.057,7.204,7.507,7.739,8.019,8.172,8.326,8.735,8.895,9.172,9.322,9.486,9.794]",0,13,13,13,1,41324,,0,1,2020-10-06_08h03.10.727,Sequence Training,2020.1.3,Win32,60
"[""1"",""4"",""2"",""3"",""1"",""4"",""4"",""2"",""3"",""1"",""4"",""4"",""2"",""3"",""1"",""4"",""4"",""2"",""3"",""1"",""4"",""4"",""2"",""3"",""1"",""4"",""4"",""2"",""3"",""1"",""4"",""4"",""2"",""3"",""1"",""4"",""4"",""2"",""3"",""1"",""4"",""4"",""2"",""3""]","[0.016,0.583,0.82,1.097,1.447,1.647,1.93,2.178,2.347,2.505,2.617,2.962,3.146,3.245,3.462,3.609,3.994,4.226,4.367,4.535,4.644,5.019,5.194,5.311,5.518,5.611,6.166,6.408,6.594,6.807,6.925,7.342,7.629,7.73,7.912,8.055,8.524,8.745,8.883,9.077,9.147,9.65,9.894,10.025]",0,14,14,14,1,42314,,10,1,2020-10-06_08h03.10.727,Sequence Training,2020.1.3,Win32,60
"[""4"",""1"",""3"",""2"",""4"",""4"",""1"",""3"",""2"",""4"",""4"",""1"",""3"",""2"",""4"",""4"",""1"",""3"",""2"",""4"",""4"",""1"",""3"",""2"",""4"",""4"",""1"",""3"",""2"",""4"",""4"",""1"",""3"",""2"",""4"",""4"",""1"",""3"",""2"",""4"",""4"",""1""]","[0.386,0.569,0.874,0.988,1.078,1.352,1.662,1.896,2.003,2.152,2.454,2.684,3.019,3.103,3.203,3.575,3.837,4.169,4.308,4.42,4.767,5.001,5.26,5.385,5.505,5.85,6.053,6.347,6.438,6.548,6.941,7.221,7.599,7.702,7.849,8.297,8.465,8.896,9.028,9.118,9.579,9.837]",0,15,15,15,1,41324,,10,1,2020-10-06_08h03.10.727,Sequence Training,2020.1.3,Win32,60
"[""4"",""1"",""3"",""2"",""4"",""4"",""1"",""3"",""2"",""4"",""4"",""1"",""3"",""2"",""4"",""4"",""1"",""3"",""2"",""4"",""4"",""1"",""3"",""2"",""4"",""4"",""1"",""3"",""2"",""4"",""4"",""1"",""3"",""2"",""4"",""4"",""1"",""3"",""2"",""4"",""4"",""1"",""3""]","[0.478,0.691,0.899,1.015,1.125,1.416,1.675,1.931,2.034,2.133,2.428,2.581,2.891,3.014,3.13,3.511,3.723,3.954,4.058,4.237,4.576,4.755,5.024,5.138,5.289,5.64,5.876,6.241,6.362,6.469,7.02,7.236,7.662,7.804,7.918,8.385,8.602,8.857,9.011,9.084,9.424,9.634,9.932]",0,16,16,16,1,41324,,10,1,2020-10-06_08h03.10.727,Sequence Training,2020.1.3,Win32,60
"[""4"",""1"",""3"",""2"",""4"",""4"",""1"",""3"",""2"",""4"",""4"",""1"",""3"",""2"",""4"",""4"",""1"",""2"",""3"",""4"",""4"",""1"",""3"",""2"",""4"",""4"",""1"",""3"",""2"",""4"",""4"",""1"",""3"",""2"",""4"",""4"",""1"",""3"",""2"",""4"",""4"",""1"",""3"",""2"",""4"",""4""]","[0.4,0.549,0.742,0.834,1.004,1.259,1.425,1.717,1.79,1.909,2.196,2.366,2.6,2.7,2.803,3.098,3.247,3.54,3.6,3.78,4.307,4.533,4.784,4.919,5.047,5.36,5.613,5.827,6.248,6.43,6.714,6.913,7.127,7.261,7.399,7.742,7.927,8.202,8.376,8.495,8.841,8.997,9.319,9.46,9.53,9.945]",0,17,17,17,1,41324,,10,1,2020-10-06_08h03.10.727,Sequence Training,2020.1.3,Win32,60
"[""4"",""1"",""3"",""2"",""4"",""4"",""1"",""3"",""2"",""4"",""4"",""1"",""3"",""2"",""4"",""4"",""1"",""3"",""2"",""4"",""4"",""1"",""3"",""2"",""4"",""4"",""1"",""3"",""2"",""4"",""4"",""1"",""3"",""2"",""2"",""4"",""4"",""1"",""3"",""2"",""4"",""4"",""1"",""3"",""2"",""4"",""4"",""1"",""3""]","[0.381,0.534,0.803,0.935,1.029,1.293,1.451,1.709,1.827,1.941,2.209,2.379,2.615,2.74,2.816,3.195,3.391,3.648,3.749,3.873,4.182,4.343,4.558,4.645,4.75,5.108,5.292,5.513,5.611,5.739,6.107,6.305,6.564,6.622,6.737,7.14,7.482,7.614,7.872,7.956,8.059,8.39,8.571,8.803,8.907,9.121,9.537,9.742,9.987]",0,18,18,18,1,41324,,10,1,2020-10-06_08h03.10.727,Sequence Training,2020.1.3,Win32,60
"[""4"",""1"",""3"",""2"",""4"",""4"",""1"",""3"",""2"",""4"",""4"",""1"",""3"",""2"",""4"",""4"",""1"",""3"",""2"",""4"",""4"",""1"",""3"",""3"",""4"",""4"",""1"",""3"",""2"",""4"",""4"",""1"",""3"",""2"",""4"",""4"",""1"",""3"",""2"",""4"",""4""]","[0.381,0.543,0.746,0.817,0.972,1.228,1.369,1.625,1.752,1.895,2.194,2.543,2.868,3.024,3.168,3.407,3.63,3.896,4.066,4.141,4.641,4.91,5.145,5.284,5.805,6.181,6.391,6.606,6.759,6.882,7.176,7.488,7.68,7.829,7.927,8.208,8.568,8.823,9.009,9.338,9.671]",0,19,19,19,1,41324,,10,1,2020-10-06_08h03.10.727,Sequence Training,2020.1.3,Win32,60
"[""4"",""1"",""3"",""2"",""4"",""4"",""1"",""3"",""2"",""4"",""4"",""1"",""3"",""2"",""4"",""4"",""1"",""3"",""2"",""4"",""4"",""1"",""3"",""2"",""4"",""4"",""1"",""3"",""2"",""4"",""4"",""1"",""3"",""2"",""4"",""4"",""1"",""3"",""2"",""4"",""4"",""1"",""3"",""2"",""4""]","[0.462,0.642,0.842,0.951,1.132,1.382,1.674,1.893,2.041,2.148,2.408,2.618,2.823,2.924,3.034,3.355,3.805,4.042,4.141,4.306,4.638,4.842,5.062,5.155,5.314,5.653,5.926,6.161,6.274,6.455,6.771,7.055,7.255,7.409,7.489,7.835,8.187,8.422,8.52,8.675,8.989,9.469,9.669,9.784,9.869]",0,20,20,20,1,41324,,10,1,2020-10-06_08h03.10.727,Sequence Training,2020.1.3,Win32,60
"[""4"",""1"",""3"",""2"",""4"",""4"",""1"",""3"",""2"",""4"",""4"",""1"",""3"",""2"",""4"",""4"",""1"",""3"",""2"",""4"",""4"",""1"",""3"",""2"",""4"",""4"",""1"",""3"",""2"",""4"",""4"",""1"",""3"",""2"",""4"",""4"",""1"",""3"",""2"",""4"",""4"",""1"",""3"",""2"",""4"",""4"",""1""]","[0.347,0.491,0.712,0.783,0.91,1.179,1.329,1.527,1.631,1.754,2.026,2.212,2.524,2.655,2.727,3.004,3.24,3.459,3.586,3.723,4.063,4.218,4.456,4.637,4.773,5.072,5.25,5.556,5.723,5.819,6.102,6.532,6.782,6.923,7.024,7.55,7.807,8.023,8.193,8.347,8.682,8.89,9.163,9.281,9.382,9.665,9.95]",0,21,21,21,1,41324,,0,1,2020-10-06_08h03.10.727,Sequence Training,2020.1.3,Win32,60
