Key_Response.keys,Key_Response.rt,trials.thisRepN,trials.thisTrialN,trials.thisN,trials.thisIndex,trials.ran,Sequences,Repeat,BreakTime,session,date,expName,psychopyVersion,OS,frameRate
"[""4"",""1"",""3"",""2"",""4"",""4"",""1"",""3"",""2"",""4"",""4"",""1"",""3""]","[1.721,2.212,3.39,4.172,4.585,5.928,6.453,6.969,7.284,7.706,8.678,9.334,9.767]",0,0,0,0,1,41324,,10,1,2020-12-29_12h31.11.038,Sequence Training,2020.1.3,Win32,60
"[""4"",""1"",""3"",""2"",""4"",""4"",""1"",""3"",""2"",""4"",""4"",""1"",""3"",""2"",""4"",""4"",""1"",""3"",""2"",""4""]","[1.618,1.999,2.444,2.758,3.106,3.558,3.988,4.458,4.733,5.065,5.587,6.082,6.457,6.781,7.156,7.865,8.781,9.147,9.476,9.847]",0,1,1,1,1,41324,,10,1,2020-12-29_12h31.11.038,Sequence Training,2020.1.3,Win32,60
"[""4"",""1"",""3"",""2"",""4"",""4"",""1"",""3"",""2"",""4"",""4"",""1"",""3"",""2"",""4"",""4"",""1"",""3"",""2"",""4"",""4""]","[0.555,1.289,1.761,2.056,2.39,3,3.555,3.982,4.291,4.627,5.266,5.74,6.131,6.454,6.901,7.421,7.921,8.399,8.815,9.172,9.623]",0,2,2,2,1,41324,,10,1,2020-12-29_12h31.11.038,Sequence Training,2020.1.3,Win32,60
"[""4"",""1"",""3"",""2"",""4"",""4"",""1"",""3"",""2"",""4"",""4"",""1"",""3"",""2"",""4"",""4"",""1"",""3"",""2"",""4"",""4"",""1"",""3""]","[0.45,1.084,1.488,1.752,2.105,2.607,3.069,3.449,3.758,4.115,4.541,5.015,5.415,5.699,6.057,6.492,7.082,8.069,8.338,8.637,9.043,9.481,9.852]",0,3,3,3,1,41324,,10,1,2020-12-29_12h31.11.038,Sequence Training,2020.1.3,Win32,60
"[""4"",""1"",""3"",""2"",""4"",""4"",""1"",""3"",""2"",""4"",""4"",""1"",""3"",""2"",""4"",""4"",""1"",""3"",""2"",""4"",""4"",""1"",""3"",""2"",""4""]","[0.51,1.116,1.477,1.812,2.116,2.466,2.857,3.222,3.524,3.858,4.359,4.939,5.332,5.632,5.949,6.316,6.735,7.155,7.465,7.809,8.215,8.774,9.188,9.467,9.802]",0,4,4,4,1,41324,,30,1,2020-12-29_12h31.11.038,Sequence Training,2020.1.3,Win32,60
"[""4"",""1"",""3"",""2"",""4"",""4"",""1"",""3"",""2"",""4"",""4"",""1"",""3"",""2"",""4"",""4"",""1"",""3"",""2"",""4"",""4"",""1"",""3"",""2"",""4""]","[0.44,0.987,1.525,1.824,2.157,2.537,2.999,3.39,3.678,4.006,4.415,4.902,5.337,5.615,5.942,6.306,6.753,7.172,7.448,7.78,8.192,8.673,9.041,9.405,9.767]",0,5,5,5,1,41324,,0,1,2020-12-29_12h31.11.038,Sequence Training,2020.1.3,Win32,60
"[""4"",""1"",""3"",""2"",""4"",""4"",""1"",""3"",""2"",""4"",""4"",""1"",""3"",""2"",""4"",""4"",""1"",""4""]","[0.125,1.968,2.318,2.555,2.842,3.288,3.791,4.156,4.536,4.936,5.303,5.764,6.177,6.547,6.922,7.413,8.832,9.338]",0,6,6,6,1,42314,,10,1,2020-12-29_12h31.11.038,Sequence Training,2020.1.3,Win32,60
"[""4"",""1"",""3"",""2"",""4"",""4"",""1"",""3"",""2"",""4"",""4"",""1"",""3"",""2"",""4"",""4"",""1"",""3"",""2"",""4"",""4"",""1"",""3"",""2"",""4""]","[0.545,1.038,1.472,1.773,2.105,2.488,2.927,3.307,3.636,3.973,4.356,4.808,5.158,5.488,5.861,6.345,6.976,7.39,7.674,8.004,8.415,8.821,9.173,9.456,9.931]",0,7,7,7,1,41324,,0,1,2020-12-29_12h31.11.038,Sequence Training,2020.1.3,Win32,60
"[""4"",""2"",""3"",""1"",""4"",""4"",""2"",""3"",""1"",""4"",""4"",""2"",""3"",""1"",""4""]","[2.51,3.482,3.89,4.207,4.645,5.464,6.302,6.767,7.037,7.389,7.889,8.373,8.763,9.077,9.527]",0,8,8,8,1,42314,,10,1,2020-12-29_12h31.11.038,Sequence Training,2020.1.3,Win32,60
"[""4"",""1"",""3"",""2"",""4"",""4"",""1"",""3"",""2"",""4"",""4"",""1"",""3"",""2"",""4"",""4"",""1"",""3"",""2"",""4"",""4""]","[0.851,1.742,2.232,2.492,2.816,3.199,3.643,4.142,4.435,4.773,5.383,5.865,6.301,6.631,6.97,7.381,7.848,8.247,8.559,8.916,9.735]",0,9,9,9,1,41324,,0,1,2020-12-29_12h31.11.038,Sequence Training,2020.1.3,Win32,60
"[""1"",""4"",""2"",""3"",""1"",""4"",""4"",""2"",""3"",""1"",""4"",""4"",""2"",""3"",""1"",""4"",""4""]","[0.154,2.568,3.235,4.222,4.532,4.868,5.374,5.824,6.215,6.492,6.816,7.398,7.88,8.252,8.63,9.017,9.433]",0,10,10,10,1,42314,,10,1,2020-12-29_12h31.11.038,Sequence Training,2020.1.3,Win32,60
"[""4"",""1"",""3"",""2"",""4"",""4"",""1"",""3"",""2"",""4"",""4"",""1"",""3"",""2"",""4"",""4"",""1"",""3"",""2"",""4"",""4"",""1"",""3"",""2""]","[0.638,1.146,1.618,1.923,2.271,2.696,3.15,3.557,3.862,4.179,4.578,5.079,5.507,5.773,6.132,6.516,7.061,7.498,7.806,8.131,8.718,9.197,9.587,9.911]",0,11,11,11,1,41324,,0,1,2020-12-29_12h31.11.038,Sequence Training,2020.1.3,Win32,60
"[""4"",""4"",""2"",""3"",""1"",""4"",""4"",""2"",""3"",""1"",""4"",""4"",""2"",""3"",""1"",""4"",""4"",""2"",""3"",""1"",""4"",""4""]","[0.179,1.384,1.886,2.368,2.778,3.234,3.673,4.099,4.508,4.787,5.182,5.715,6.135,6.497,6.774,7.164,7.659,8.314,8.673,8.942,9.315,9.747]",0,12,12,12,1,42314,,10,1,2020-12-29_12h31.11.038,Sequence Training,2020.1.3,Win32,60
"[""4"",""1"",""3"",""2"",""4"",""4"",""1"",""3"",""2"",""4"",""4"",""1"",""3"",""2"",""4"",""4"",""1"",""3"",""2"",""4"",""4"",""1"",""3"",""2""]","[0.535,1.201,1.596,1.898,2.217,2.596,3.024,3.395,3.702,4.029,4.416,4.878,5.262,5.536,5.867,6.321,6.982,7.382,7.695,8.026,8.509,8.976,9.409,9.676]",0,13,13,13,1,41324,,0,1,2020-12-29_12h31.11.038,Sequence Training,2020.1.3,Win32,60
"[""4"",""2"",""3"",""1"",""4"",""4"",""2"",""3"",""1"",""4"",""4"",""2"",""3"",""1"",""4"",""4"",""2"",""3"",""1"",""4"",""4"",""2""]","[1.416,1.866,2.632,2.933,3.332,3.766,4.249,4.665,4.982,5.382,5.798,6.265,6.632,6.947,7.315,7.715,8.148,8.531,8.848,9.198,9.613,10.015]",0,14,14,14,1,42314,,10,1,2020-12-29_12h31.11.038,Sequence Training,2020.1.3,Win32,60
"[""4"",""1"",""3"",""2"",""4"",""4"",""1"",""3"",""2"",""4"",""4"",""1"",""3"",""2"",""4"",""4"",""1"",""3"",""2"",""4"",""4"",""1"",""3"",""2""]","[1.233,1.635,2.071,2.379,2.668,3.037,3.472,3.862,4.167,4.466,4.864,5.344,5.711,5.996,6.335,6.698,7.182,7.561,7.833,8.184,8.562,9.01,9.377,9.664]",0,15,15,15,1,41324,,10,1,2020-12-29_12h31.11.038,Sequence Training,2020.1.3,Win32,60
"[""4"",""1"",""3"",""2"",""4"",""4"",""1"",""3"",""2"",""4"",""4"",""1"",""3"",""2"",""4"",""4"",""1"",""3"",""2"",""4"",""4"",""1"",""3"",""2"",""4""]","[0.591,1.121,1.554,1.85,2.135,2.544,3.017,3.395,3.731,4.046,4.438,4.914,5.296,5.614,5.928,6.295,6.783,7.177,7.527,7.804,8.266,8.736,9.13,9.427,9.763]",0,16,16,16,1,41324,,10,1,2020-12-29_12h31.11.038,Sequence Training,2020.1.3,Win32,60
"[""4"",""1"",""3"",""2"",""4"",""4"",""1"",""3"",""2"",""4"",""4"",""1"",""3"",""2"",""4"",""4"",""1"",""3"",""2"",""4"",""4"",""1"",""3"",""2"",""4""]","[1.12,1.545,1.903,2.2,2.494,2.852,3.328,3.688,3.994,4.299,4.676,5.139,5.542,5.848,6.169,6.535,6.964,7.373,7.665,7.96,8.292,8.74,9.154,9.436,9.733]",0,17,17,17,1,41324,,10,1,2020-12-29_12h31.11.038,Sequence Training,2020.1.3,Win32,60
"[""4"",""1"",""3"",""2"",""4"",""4"",""1"",""3"",""2"",""4"",""4"",""1"",""3"",""2"",""4"",""4"",""1"",""3"",""2"",""4"",""4"",""1"",""3"",""2"",""4""]","[0.548,1.101,1.435,1.703,1.994,2.358,2.818,3.22,3.516,3.809,4.183,4.658,5.032,5.323,5.616,5.972,6.468,6.917,7.198,7.481,7.906,8.365,8.736,9.035,9.547]",0,18,18,18,1,41324,,10,1,2020-12-29_12h31.11.038,Sequence Training,2020.1.3,Win32,60
"[""4"",""1"",""3"",""2"",""4"",""4"",""1"",""3"",""2"",""4"",""4"",""1"",""3"",""2"",""4"",""4"",""1"",""3"",""2"",""4"",""4"",""1"",""3"",""2""]","[0.587,1.103,1.597,1.864,2.196,2.564,3.037,3.433,3.748,4.104,4.479,5.002,5.395,5.816,6.169,6.529,7.086,7.521,7.841,8.165,8.563,9.111,9.514,9.845]",0,19,19,19,1,41324,,10,1,2020-12-29_12h31.11.038,Sequence Training,2020.1.3,Win32,60
"[""4"",""1"",""3"",""2"",""4"",""4"",""1"",""3"",""2"",""4"",""4"",""1"",""3"",""2"",""4"",""4"",""1"",""3"",""2"",""4"",""4"",""1"",""3""]","[0.433,1.085,1.941,2.215,2.553,2.941,3.426,3.787,4.062,4.374,4.745,5.207,5.566,5.874,6.159,6.525,6.995,7.445,7.742,8.053,8.473,9.023,9.689]",0,20,20,20,1,41324,,10,1,2020-12-29_12h31.11.038,Sequence Training,2020.1.3,Win32,60
"[""4"",""1"",""3"",""2"",""4"",""4"",""1"",""3"",""2"",""4"",""4"",""1"",""3"",""2"",""4"",""4"",""1"",""1"",""3"",""2"",""4"",""4"",""1"",""3""]","[0.5,1.119,1.577,1.933,2.217,2.622,3.116,3.504,3.767,4.116,4.46,4.884,5.259,5.517,5.861,6.235,6.706,6.961,7.49,7.84,8.599,8.897,9.431,9.814]",0,21,21,21,1,41324,,0,1,2020-12-29_12h31.11.038,Sequence Training,2020.1.3,Win32,60
