Key_Response.keys,Key_Response.rt,trials.thisRepN,trials.thisTrialN,trials.thisN,trials.thisIndex,trials.ran,Sequences,Repeat,BreakTime,session,date,expName,psychopyVersion,OS,frameRate
"[""4"",""1"",""3"",""2"",""4"",""4"",""1"",""3"",""2"",""4"",""4"",""1"",""3"",""2""]","[1.448,1.736,2.793,3.146,4.016,5.096,5.528,6.49,6.832,7.32,8.113,8.615,9.632,9.984]",0,0,0,0,1,41324,,10,1,2020-10-12_15h18.09.872,Sequence Training,2020.1.3,Win32,60
"[""4"",""1"",""3"",""2"",""4"",""4"",""1"",""3"",""2"",""4"",""4"",""1"",""3"",""2"",""4"",""1""]","[0.754,1.005,1.474,1.834,2.242,2.877,3.212,3.564,3.842,4.153,4.594,5.035,5.57,5.962,8.246,9.651]",0,1,1,1,1,41324,,10,1,2020-10-12_15h18.09.872,Sequence Training,2020.1.3,Win32,60
"[""4"",""1"",""3"",""2"",""4"",""4"",""1"",""3"",""2"",""4"",""4"",""1"",""3"",""2"",""4"",""4"",""1"",""3""]","[0.62,0.963,1.355,1.699,2.083,2.796,3.539,4.099,4.651,5.134,5.686,5.979,6.291,6.595,6.948,7.419,7.827,8.194]",0,2,2,2,1,41324,,10,1,2020-10-12_15h18.09.872,Sequence Training,2020.1.3,Win32,60
"[""4"",""1"",""3"",""2"",""4"",""4"",""1"",""3"",""2"",""4"",""4"",""1"",""3"",""2"",""4"",""4"",""1"",""3"",""2"",""4"",""4"",""1"",""3""]","[0.628,1.018,1.387,1.682,2.082,2.49,2.794,3.13,3.458,3.803,4.218,4.498,4.813,6.443,6.762,7.154,7.41,7.827,8.226,8.738,9.33,9.618,9.948]",0,3,3,3,1,41324,,10,1,2020-10-12_15h18.09.872,Sequence Training,2020.1.3,Win32,60
"[""4"",""1"",""3"",""2"",""4"",""4"",""1"",""3"",""2"",""4"",""4"",""1"",""3"",""2"",""4"",""4"",""1"",""3"",""2"",""4"",""4"",""1"",""3"",""2"",""4"",""4"",""1""]","[0.534,0.749,1.141,1.469,1.821,2.174,2.421,2.725,3.277,3.591,3.965,4.182,4.485,4.846,5.654,6.085,6.501,6.837,7.029,7.413,7.869,8.253,8.543,8.781,9.158,9.5,9.734]",0,4,4,4,1,41324,,30,1,2020-10-12_15h18.09.872,Sequence Training,2020.1.3,Win32,60
"[""4"",""1"",""3"",""2"",""4"",""4"",""1"",""3"",""2"",""4"",""4"",""1"",""3"",""2"",""4"",""4"",""1"",""3"",""2"",""4"",""4"",""1"",""3"",""2"",""4"",""4"",""1"",""3"",""2"",""4"",""4""]","[0.465,0.701,1.053,1.292,1.557,1.845,2.02,2.332,2.508,2.877,3.212,3.46,3.861,4.037,4.468,4.788,4.973,5.316,5.565,5.985,6.335,6.692,7.238,7.444,8.041,8.492,8.86,9.149,9.325,9.612,9.949]",0,5,5,5,1,41324,,0,1,2020-10-12_15h18.09.872,Sequence Training,2020.1.3,Win32,60
"[""1"",""2"",""3"",""1"",""4"",""4"",""2"",""3"",""1"",""4"",""4"",""2"",""3"",""1"",""4"",""4"",""2"",""3"",""1""]","[0.108,2.008,2.205,2.565,3.053,3.588,4.566,4.861,5.269,5.557,5.956,6.781,7.253,7.543,7.868,8.436,9.069,9.444,9.876]",0,6,6,6,1,42314,,10,1,2020-10-12_15h18.09.872,Sequence Training,2020.1.3,Win32,60
"[""4"",""1"",""3"",""2"",""4"",""4"",""1"",""3"",""2"",""4"",""4"",""1"",""3"",""2"",""4"",""4"",""1"",""3"",""2"",""4"",""4"",""1"",""3"",""2"",""4"",""4"",""1"",""3"",""2""]","[0.659,0.923,1.227,1.502,1.819,2.17,2.386,2.683,2.883,3.331,3.726,3.93,4.299,4.539,4.899,5.243,5.522,5.867,6.067,6.363,7.02,7.307,7.659,7.907,8.195,8.693,8.899,9.338,9.618]",0,7,7,7,1,41324,,0,1,2020-10-12_15h18.09.872,Sequence Training,2020.1.3,Win32,60
"[""4"",""2"",""3"",""1"",""4"",""4"",""2"",""3"",""1"",""4"",""4"",""2"",""3"",""1"",""4"",""4"",""2"",""3"",""1"",""4"",""4"",""2"",""3"",""1""]","[0.026,1.221,1.386,1.787,2.083,2.883,3.462,3.65,4.074,4.466,5.315,5.738,5.988,6.39,6.707,7.234,7.73,7.906,8.267,8.483,8.954,9.418,9.61,9.954]",0,8,8,8,1,42314,,10,1,2020-10-12_15h18.09.872,Sequence Training,2020.1.3,Win32,60
"[""4"",""1"",""3"",""2"",""4"",""4"",""1"",""3"",""2"",""4"",""4"",""1"",""3"",""2"",""4"",""4"",""1"",""3"",""2"",""4"",""4"",""1"",""3"",""2"",""4"",""4"",""1""]","[0.601,0.865,1.472,1.696,2.048,2.402,2.705,3,3.176,3.632,4.025,4.264,4.963,5.152,5.504,5.888,6.184,6.505,6.704,7.032,7.592,7.906,8.337,8.642,9.015,9.679,9.999]",0,9,9,9,1,41324,,0,1,2020-10-12_15h18.09.872,Sequence Training,2020.1.3,Win32,60
"[""4"",""2"",""3"",""1"",""4"",""1"",""4"",""2"",""3"",""1"",""4"",""4"",""2"",""3"",""1"",""4"",""4"",""2"",""3""]","[0.988,1.601,1.784,2.208,2.443,2.881,5.329,5.92,6.097,6.417,6.681,7.321,7.688,7.865,8.265,8.512,9.12,9.505,9.668]",0,10,10,10,1,42314,,10,1,2020-10-12_15h18.09.872,Sequence Training,2020.1.3,Win32,60
"[""4"",""1"",""3"",""2"",""4"",""4"",""1"",""3"",""2"",""4"",""4"",""1"",""3"",""2"",""4"",""4"",""1"",""3"",""2"",""4"",""4"",""1"",""3"",""2"",""4"",""4"",""1"",""3"",""2""]","[0.672,0.976,1.375,1.543,1.904,2.192,2.408,2.728,2.928,3.258,3.599,3.888,4.495,4.72,5.114,5.471,5.696,6.051,6.272,6.664,7.112,7.327,8.075,8.343,8.744,9.247,9.432,9.791,10.015]",0,11,11,11,1,41324,,0,1,2020-10-12_15h18.09.872,Sequence Training,2020.1.3,Win32,60
"[""4"",""2"",""3"",""1"",""4"",""4"",""2"",""3"",""1"",""4"",""4"",""1"",""2"",""3"",""1"",""4"",""4"",""2"",""3"",""1"",""4"",""4"",""2"",""3""]","[0.831,1.639,1.879,2.15,2.459,2.945,3.27,3.546,3.95,4.278,4.834,5.111,6.111,6.399,6.84,7.175,7.542,7.863,8.078,8.383,8.76,9.103,9.494,9.662]",0,12,12,12,1,42314,,10,1,2020-10-12_15h18.09.872,Sequence Training,2020.1.3,Win32,60
"[""4"",""1"",""3"",""2"",""4"",""4"",""1"",""3"",""2"",""4"",""4"",""1"",""3"",""2"",""4"",""4"",""1"",""3"",""2"",""4"",""4"",""1"",""2"",""3"",""2"",""4"",""4"",""1"",""3""]","[0.669,0.86,1.197,1.373,1.692,2.004,2.196,2.78,3.044,3.404,3.82,4.076,4.468,4.644,4.996,5.419,5.652,5.932,6.14,6.452,6.788,6.972,7.948,8.428,8.596,8.942,9.276,9.453,9.94]",0,13,13,13,1,41324,,0,1,2020-10-12_15h18.09.872,Sequence Training,2020.1.3,Win32,60
"[""2"",""4"",""2"",""3"",""1"",""4"",""4"",""2"",""3"",""1"",""4"",""4"",""2"",""3"",""1"",""4"",""4"",""2"",""3"",""1"",""4"",""4"",""2"",""3""]","[0.054,1.39,1.862,2.102,2.35,2.63,2.944,3.317,3.529,3.877,4.158,4.654,5.167,5.334,5.662,5.91,6.472,7.077,7.422,7.693,8.006,8.486,9.286,9.909]",0,14,14,14,1,42314,,10,1,2020-10-12_15h18.09.872,Sequence Training,2020.1.3,Win32,60
"[""4"",""1"",""3"",""2"",""4"",""4"",""1"",""3"",""2"",""4"",""4"",""1"",""3"",""2"",""4"",""4"",""1"",""3"",""2"",""4"",""4"",""1"",""3"",""2"",""4"",""4""]","[0.557,0.756,1.02,1.26,1.548,1.804,1.988,2.317,2.524,2.86,3.18,3.381,3.708,3.917,5.324,6.068,6.364,6.669,7.012,7.517,8.012,8.244,8.692,8.909,9.461,9.86]",0,15,15,15,1,41324,,10,1,2020-10-12_15h18.09.872,Sequence Training,2020.1.3,Win32,60
"[""4"",""1"",""3"",""2"",""4"",""4"",""1"",""2"",""3"",""2"",""4"",""4"",""1"",""3"",""2"",""4"",""4"",""1"",""3"",""2"",""4"",""1""]","[0.584,0.848,1.143,1.335,1.655,2.023,2.255,3.127,3.442,3.591,3.976,4.367,4.599,4.991,5.167,5.567,6.111,6.343,6.687,6.865,7.175,7.647]",0,16,16,16,1,41324,,10,1,2020-10-12_15h18.09.872,Sequence Training,2020.1.3,Win32,60
"[""4"",""1"",""3"",""2"",""4"",""4"",""1"",""3"",""2"",""4"",""4"",""1"",""3"",""2"",""4"",""4"",""1"",""3"",""2"",""4"",""4"",""1"",""3""]","[0.466,0.69,0.922,1.107,1.435,2.121,2.555,2.842,3.066,3.338,3.778,3.985,4.314,5.602,5.977,6.906,7.155,8.275,8.506,8.786,9.25,9.537,9.857]",0,17,17,17,1,41324,,10,1,2020-10-12_15h18.09.872,Sequence Training,2020.1.3,Win32,60
"[""4"",""1"",""3"",""2"",""4"",""4"",""1"",""3"",""2"",""4"",""4"",""1"",""3"",""2"",""4"",""4"",""1"",""3"",""2"",""4"",""4"",""1"",""3"",""2"",""4"",""4"",""1"",""3"",""2""]","[0.62,0.804,1.004,1.259,1.551,1.859,2.002,2.268,2.507,2.81,3.179,3.332,3.651,3.915,4.378,4.827,5.028,5.523,5.923,6.258,6.755,6.987,7.788,8.011,8.394,8.867,9.127,9.61,9.763]",0,18,18,18,1,41324,,10,1,2020-10-12_15h18.09.872,Sequence Training,2020.1.3,Win32,60
"[""4"",""1"",""3"",""2"",""4"",""4"",""1"",""3"",""2"",""4"",""4"",""1"",""3"",""2"",""4"",""4"",""1"",""3"",""4"",""2"",""3"",""4"",""1"",""3"",""2"",""4"",""4"",""1"",""2""]","[0.673,0.882,1.208,1.441,1.769,2.023,2.215,2.522,2.723,3.071,3.36,3.567,3.825,4.047,4.345,4.623,4.863,5.131,5.369,5.632,5.919,6.912,7.215,7.576,7.776,8.079,8.424,8.632,9.488]",0,19,19,19,1,41324,,10,1,2020-10-12_15h18.09.872,Sequence Training,2020.1.3,Win32,60
"[""4"",""1"",""3"",""2"",""4"",""4"",""1"",""3"",""2"",""4"",""4"",""1"",""3"",""2"",""4"",""4"",""1"",""2"",""3"",""2"",""4"",""4"",""1""]","[0.551,0.819,1.603,1.869,2.205,2.54,2.757,3.075,3.268,3.595,3.962,4.246,5.435,5.716,6.035,6.855,7.155,8.066,8.511,8.695,9.027,9.397,9.682]",0,20,20,20,1,41324,,10,1,2020-10-12_15h18.09.872,Sequence Training,2020.1.3,Win32,60
"[""4"",""1"",""3"",""2"",""4"",""4"",""1"",""3"",""2"",""4"",""4"",""1"",""3"",""2"",""4"",""4"",""1"",""3"",""2"",""4"",""4"",""1"",""3"",""2"",""4"",""4"",""1"",""3"",""2"",""4""]","[0.615,0.846,1.172,1.352,1.719,2.054,2.301,2.657,2.812,3.213,3.575,3.883,4.293,4.461,4.885,5.269,5.54,5.892,6.06,6.445,6.965,7.22,7.533,7.748,8.117,8.525,8.91,9.237,9.445,9.725]",0,21,21,21,1,41324,,0,1,2020-10-12_15h18.09.872,Sequence Training,2020.1.3,Win32,60
