Key_Response.keys,Key_Response.rt,trials.thisRepN,trials.thisTrialN,trials.thisN,trials.thisIndex,trials.ran,Sequences,Repeat,BreakTime,session,date,expName,psychopyVersion,OS,frameRate
"[""4"",""1"",""3"",""2"",""4"",""4"",""1"",""3"",""2"",""4"",""4"",""1"",""3"",""2"",""4"",""4"",""1"",""3"",""2"",""4"",""4""]","[1.645,2.036,2.702,2.909,3.157,4.237,4.637,5.03,5.229,5.469,6.309,6.685,7.397,7.653,7.869,8.342,8.677,9.141,9.341,9.581,9.977]",0,0,0,0,1,41324,,10,1,2021-01-12_16h16.07.588,Sequence Training,2020.1.3,Win32,60
"[""4"",""1"",""3"",""2"",""4"",""4"",""1"",""3"",""2"",""4"",""4"",""1"",""3"",""2"",""4"",""4"",""1"",""3"",""2"",""4"",""4"",""1"",""3"",""2"",""4"",""1""]","[1.302,1.67,2.325,2.5,2.685,3.709,3.981,4.222,4.389,4.573,4.964,5.165,5.381,5.541,5.696,6.109,6.214,6.557,6.677,6.868,7.669,7.949,8.453,8.573,8.749,9.204]",0,1,1,1,1,41324,,10,1,2021-01-12_16h16.07.588,Sequence Training,2020.1.3,Win32,60
"[""4"",""1"",""3"",""2"",""4"",""4"",""1"",""3"",""2"",""4"",""4"",""1"",""3"",""2"",""4"",""4"",""1"",""3"",""2"",""4"",""4"",""1"",""3"",""2"",""4"",""4"",""1""]","[0.636,0.955,1.459,1.587,1.763,2.339,2.715,3.155,3.283,3.482,4.075,4.435,4.877,5.01,5.251,6.019,6.411,6.94,7.091,7.324,7.875,8.243,8.659,8.803,8.947,9.411,9.738]",0,2,2,2,1,41324,,10,1,2021-01-12_16h16.07.588,Sequence Training,2020.1.3,Win32,60
"[""4"",""1"",""3"",""2"",""4"",""4"",""1"",""3"",""2"",""4"",""4"",""1"",""3"",""2"",""4"",""4"",""1"",""3"",""2"",""4"",""4"",""1"",""3"",""2"",""4"",""4"",""1"",""3"",""2"",""4"",""4"",""1""]","[0.5,0.785,1.161,1.257,1.465,1.841,2.096,2.425,2.721,2.903,3.22,3.737,4.225,4.425,4.633,5.129,5.322,5.953,6.049,6.241,6.817,6.985,7.449,7.476,7.633,8.169,8.345,8.729,8.89,9.058,9.585,9.753]",0,3,3,3,1,41324,,10,1,2021-01-12_16h16.07.588,Sequence Training,2020.1.3,Win32,60
"[""4"",""1"",""3"",""2"",""4"",""4"",""1"",""3"",""2"",""4"",""4"",""1"",""3"",""2"",""4"",""4"",""1"",""3"",""2"",""4"",""4"",""1"",""3"",""2"",""4"",""4"",""1"",""3"",""2"",""4"",""4"",""1"",""3"",""2"",""4""]","[0.544,0.818,1.192,1.279,1.448,1.92,2.024,2.448,2.52,2.754,3.22,3.464,3.817,3.97,4.135,4.664,4.84,5.24,5.368,5.592,6.135,6.456,6.776,6.874,7.032,7.57,7.695,8.096,8.168,8.391,9.008,9.152,9.525,9.584,9.784]",0,4,4,4,1,41324,,30,1,2021-01-12_16h16.07.588,Sequence Training,2020.1.3,Win32,60
"[""4"",""1"",""3"",""3"",""4"",""4"",""1"",""3"",""2"",""4"",""4"",""1"",""3"",""2"",""4"",""4"",""1"",""3"",""2"",""4"",""4"",""1"",""3"",""2"",""4"",""4"",""1"",""3"",""2"",""4""]","[1.08,1.367,1.775,1.887,2.238,2.679,3.007,3.382,3.487,3.711,4.199,4.594,4.894,4.99,5.191,5.823,6.118,6.471,6.599,6.832,7.44,7.759,8.119,8.263,8.408,8.846,9.014,9.414,9.478,9.638]",0,5,5,5,1,41324,,0,1,2021-01-12_16h16.07.588,Sequence Training,2020.1.3,Win32,60
"[""4"",""1"",""4"",""2"",""4"",""2"",""3"",""1"",""4"",""4"",""2"",""3"",""1"",""4"",""4"",""2"",""3"",""1"",""4"",""4"",""2""]","[0.019,0.148,1.34,1.787,3.723,3.995,4.875,5.115,5.204,5.621,5.921,6.188,6.405,6.491,6.867,7.275,8.003,8.091,8.347,9.19,9.556]",0,6,6,6,1,42314,,10,1,2021-01-12_16h16.07.588,Sequence Training,2020.1.3,Win32,60
"[""4"",""1"",""3"",""2"",""4"",""4"",""1"",""3"",""2"",""4"",""4"",""1"",""3"",""2"",""4"",""4"",""1"",""3"",""2"",""4"",""4"",""1"",""3"",""2"",""4"",""4"",""1"",""3"",""2"",""4"",""4"",""1"",""3"",""2"",""4"",""4"",""1""]","[0.583,0.811,1.259,1.363,1.531,1.947,2.067,2.437,2.515,2.699,3.115,3.267,3.627,3.722,3.887,4.339,4.443,4.843,4.939,5.067,5.467,5.572,5.891,6.004,6.173,6.675,6.842,7.243,7.357,7.514,7.947,8.067,8.539,8.635,8.788,9.392,9.509]",0,7,7,7,1,41324,,0,1,2021-01-12_16h16.07.588,Sequence Training,2020.1.3,Win32,60
"[""3"",""2"",""4"",""2"",""3"",""1"",""4"",""4"",""2"",""3"",""1"",""4"",""4"",""2"",""3"",""1"",""4"",""4"",""2""]","[0.264,0.441,4.387,4.704,5.488,5.737,5.993,6.402,6.706,6.969,7.217,7.465,7.777,8.153,8.489,8.721,8.968,9.345,9.712]",0,8,8,8,1,42314,,10,1,2021-01-12_16h16.07.588,Sequence Training,2020.1.3,Win32,60
"[""4"",""1"",""3"",""2"",""4"",""4"",""1"",""3"",""2"",""4"",""4"",""1"",""3"",""2"",""4"",""4"",""1"",""3"",""2"",""4"",""4""]","[4.049,4.316,4.885,5.074,5.283,5.642,5.939,6.386,6.498,6.726,7.13,7.379,7.666,7.786,7.97,8.562,8.826,9.17,9.29,9.49,9.898]",0,9,9,9,1,41324,,0,1,2021-01-12_16h16.07.588,Sequence Training,2020.1.3,Win32,60
"[""1"",""4"",""2"",""3"",""1"",""4"",""4"",""2"",""3"",""1"",""4"",""4"",""2"",""3"",""1"",""4"",""4"",""2"",""3"",""1"",""4"",""4"",""2"",""3"",""1"",""4"",""4"",""2""]","[0.035,1.475,1.627,2.387,2.555,2.723,3.1,3.371,3.603,3.779,3.931,4.318,4.715,5.499,5.627,5.771,6.115,6.363,6.562,6.738,6.843,7.427,8.659,8.891,9.019,9.179,9.587,9.811]",0,10,10,10,1,42314,,10,1,2021-01-12_16h16.07.588,Sequence Training,2020.1.3,Win32,60
"[""4"",""1"",""3"",""2"",""4"",""4"",""1"",""3"",""2"",""4"",""4"",""1"",""3"",""2"",""4"",""4"",""1"",""3"",""2"",""4"",""4"",""1"",""3"",""2"",""4"",""4"",""1"",""3"",""2"",""4"",""4"",""1"",""3"",""2"",""4"",""4"",""1""]","[0.664,0.972,1.26,1.332,1.5,1.852,1.964,2.268,2.324,2.5,2.892,3.037,3.316,3.428,3.588,3.996,4.276,4.788,4.875,5.172,5.748,5.94,6.26,6.396,6.532,6.973,7.076,7.492,7.607,7.78,8.244,8.404,8.741,8.828,9.026,9.756,9.908]",0,11,11,11,1,41324,,0,1,2021-01-12_16h16.07.588,Sequence Training,2020.1.3,Win32,60
"[""3"",""4"",""2"",""3"",""1"",""4"",""4"",""2"",""3"",""1"",""4"",""4"",""2"",""3"",""1"",""4"",""4"",""2"",""3"",""1"",""4"",""4"",""2"",""3"",""1"",""4"",""4""]","[0.235,1.332,1.514,2.914,3.057,3.178,3.626,3.954,4.689,4.802,5.01,5.442,5.839,6.154,6.394,6.49,6.874,7.21,7.442,7.626,7.73,8.124,8.521,8.898,9.194,9.314,9.818]",0,12,12,12,1,42314,,10,1,2021-01-12_16h16.07.588,Sequence Training,2020.1.3,Win32,60
"[""4"",""1"",""3"",""2"",""4"",""4"",""1"",""3"",""2"",""4"",""4"",""1"",""3"",""2"",""4"",""4"",""1"",""3"",""2"",""4"",""4"",""1"",""3"",""2"",""4"",""4"",""1"",""3"",""2"",""4"",""4"",""1"",""3"",""2"",""4"",""4"",""1""]","[1.02,1.168,1.488,1.585,1.752,2.12,2.24,2.472,2.576,2.754,3.176,3.28,3.656,3.755,3.904,4.338,4.44,4.889,4.988,5.136,5.552,5.68,6.106,6.208,6.376,6.792,7,7.432,7.544,7.704,8.107,8.224,8.626,8.741,8.912,9.304,9.552]",0,13,13,13,1,41324,,0,1,2021-01-12_16h16.07.588,Sequence Training,2020.1.3,Win32,60
"[""3"",""2"",""4"",""2"",""3"",""1"",""4"",""4"",""2"",""3"",""1"",""4"",""4"",""2"",""3"",""1"",""4"",""4"",""2"",""3"",""1"",""4"",""4"",""2"",""3"",""1"",""4""]","[0.174,0.277,1.502,1.636,2.093,2.197,2.397,3.549,3.725,4.126,4.262,4.422,4.877,5.055,6.206,6.31,6.453,6.829,6.998,7.381,7.485,7.661,8.191,8.445,8.702,8.837,8.965]",0,14,14,14,1,42314,,10,1,2021-01-12_16h16.07.588,Sequence Training,2020.1.3,Win32,60
"[""4"",""1"",""3"",""2"",""4"",""4"",""1"",""3"",""2"",""4"",""4"",""1"",""3"",""2"",""4"",""4"",""1"",""3"",""2"",""4"",""4"",""1"",""3"",""2"",""4"",""4"",""1"",""3"",""2"",""4""]","[1.488,1.587,1.907,1.987,2.163,2.563,2.699,2.988,3.067,3.251,3.604,3.723,4.02,4.12,4.291,4.643,4.804,5.115,5.205,5.395,5.891,6.027,6.395,6.491,6.731,8.259,8.436,9.725,9.795,9.995]",0,15,15,15,1,41324,,10,1,2021-01-12_16h16.07.588,Sequence Training,2020.1.3,Win32,60
"[""4"",""1"",""3"",""4"",""4"",""1"",""3"",""2"",""4"",""4"",""1"",""3"",""2"",""4"",""4"",""1"",""3"",""2"",""4"",""4"",""1"",""3"",""2"",""4"",""4"",""1"",""3"",""2"",""4"",""4"",""1"",""3"",""2"",""4"",""4"",""1"",""3"",""2""]","[1.124,1.236,1.627,2.107,2.571,2.675,3.019,3.106,3.282,3.635,3.739,4.035,4.115,4.306,4.755,4.964,5.283,5.364,5.547,6.019,6.155,6.49,6.565,6.771,7.115,7.243,7.603,7.698,7.875,8.259,8.443,8.73,8.827,9.016,9.355,9.498,9.875,9.979]",0,16,16,16,1,41324,,10,1,2021-01-12_16h16.07.588,Sequence Training,2020.1.3,Win32,60
"[""4"",""1"",""3"",""2"",""4"",""4"",""1"",""3"",""2"",""4"",""4"",""1"",""3"",""2"",""4"",""4"",""1"",""3"",""2"",""4"",""4"",""1"",""3"",""2"",""4"",""4"",""1"",""3"",""2"",""4"",""4"",""1"",""3"",""2"",""4""]","[1.554,1.664,1.905,2.003,2.187,2.586,2.689,2.985,3.065,3.253,3.641,3.817,4.048,4.145,4.329,4.729,4.873,5.138,5.224,5.385,5.753,5.906,6.209,6.313,6.521,7.24,7.34,7.721,7.881,8.096,8.768,8.873,9.192,9.258,9.465]",0,17,17,17,1,41324,,10,1,2021-01-12_16h16.07.588,Sequence Training,2020.1.3,Win32,60
"[""4"",""1"",""3"",""2"",""4"",""4"",""1"",""3"",""2"",""4"",""4"",""1"",""3"",""2"",""4"",""4"",""1"",""3"",""2"",""4"",""4"",""1"",""3"",""2"",""4"",""4"",""1"",""3"",""2"",""4"",""4"",""1"",""3"",""2"",""4""]","[1.731,1.808,2.039,2.153,2.312,2.52,2.656,2.937,3.024,3.192,3.448,3.592,3.944,4.016,4.271,4.688,5.152,5.632,5.736,5.92,6.488,6.632,6.92,7.008,7.192,7.632,7.774,8.119,8.231,8.408,8.792,8.92,9.342,9.448,9.664]",0,18,18,18,1,41324,,10,1,2021-01-12_16h16.07.588,Sequence Training,2020.1.3,Win32,60
"[""4"",""1"",""3"",""2"",""4"",""4"",""1"",""3"",""2"",""4"",""4"",""1"",""3"",""2"",""4"",""4"",""1"",""3"",""2"",""4"",""4"",""1"",""3"",""2"",""4"",""4"",""1"",""3"",""2"",""4"",""4"",""1"",""3"",""2"",""4"",""4"",""1"",""3"",""2"",""4""]","[0.922,1.005,1.245,1.335,1.501,1.821,1.909,2.205,2.293,2.47,2.829,2.949,3.245,3.342,3.501,3.837,3.965,4.317,4.413,4.645,5.054,5.181,5.469,5.597,5.781,6.125,6.293,6.741,6.853,7.141,7.837,7.959,8.237,8.333,8.509,8.941,9.133,9.469,9.549,9.717]",0,19,19,19,1,41324,,10,1,2021-01-12_16h16.07.588,Sequence Training,2020.1.3,Win32,60
"[""4"",""1"",""3"",""2"",""4"",""4"",""1"",""3"",""2"",""4"",""4"",""1"",""3"",""2"",""4"",""4"",""1"",""3"",""2"",""4"",""4"",""1"",""3"",""2"",""4"",""1"",""4"",""3"",""2"",""4"",""4"",""1"",""3"",""2"",""4""]","[1.592,1.701,1.973,2.053,2.317,2.709,2.805,3.093,3.189,3.365,3.653,3.781,4.069,4.149,4.333,4.701,4.853,5.108,5.22,5.389,5.789,5.893,6.221,6.285,6.485,6.885,7.005,8.341,8.445,8.629,8.996,9.117,9.397,9.517,9.725]",0,20,20,20,1,41324,,10,1,2021-01-12_16h16.07.588,Sequence Training,2020.1.3,Win32,60
"[""4"",""1"",""3"",""2"",""4"",""4"",""1"",""3"",""2"",""4"",""4"",""1"",""3"",""2"",""4"",""4"",""1"",""3"",""2"",""4"",""4"",""1"",""3"",""2"",""4"",""4"",""1"",""3"",""2"",""4"",""4"",""1"",""3"",""2"",""4"",""4""]","[1.246,1.347,1.61,1.659,1.837,2.147,2.243,2.69,2.803,2.971,3.315,3.435,3.707,3.804,3.963,4.323,4.442,4.789,4.931,5.243,5.987,6.115,6.387,6.491,6.683,7.107,7.219,7.499,7.603,7.786,8.325,8.492,9.323,9.427,9.587,9.994]",0,21,21,21,1,41324,,0,1,2021-01-12_16h16.07.588,Sequence Training,2020.1.3,Win32,60
