Key_Response.keys,Key_Response.rt,trials.thisRepN,trials.thisTrialN,trials.thisN,trials.thisIndex,trials.ran,Sequences,Repeat,BreakTime,session,date,expName,psychopyVersion,OS,frameRate
"[""4"",""1"",""3"",""2"",""4"",""4"",""1"",""2"",""3"",""2"",""4"",""4""]","[1.592,2.029,2.714,3.154,3.608,4.991,5.68,6.324,7.54,7.86,8.459,9.975]",0,0,0,0,1,41324,,10,1,2020-10-06_09h11.09.807,Sequence Training,2020.1.3,Win32,60
"[""4"",""1"",""3"",""2"",""4"",""4"",""1"",""3"",""2"",""4"",""4"",""1"",""3"",""2"",""4"",""4"",""1"",""3"",""2""]","[0.813,1.268,1.69,2.289,2.704,3.496,4.103,4.524,5.314,5.656,6.676,7.099,7.545,7.871,8.19,8.956,9.222,9.604,9.879]",0,1,1,1,1,41324,,10,1,2020-10-06_09h11.09.807,Sequence Training,2020.1.3,Win32,60
"[""4"",""1"",""3"",""2"",""4"",""4"",""1"",""3"",""2"",""4"",""4"",""1"",""3"",""2"",""4"",""4"",""1"",""3"",""2"",""4"",""4"",""1"",""3"",""2"",""4"",""4"",""1"",""3"",""2"",""4""]","[0.824,1.205,1.937,2.403,2.699,3.085,3.381,3.688,3.95,4.186,4.5,4.72,5.02,5.249,5.438,5.708,5.934,6.303,6.566,6.749,7.05,7.288,7.601,7.843,8.068,8.45,8.668,9.017,9.402,9.634]",0,2,2,2,1,41324,,10,1,2020-10-06_09h11.09.807,Sequence Training,2020.1.3,Win32,60
"[""4"",""1"",""3"",""2"",""4"",""4"",""1"",""3"",""2"",""4"",""4"",""1"",""3"",""2"",""4"",""4"",""1"",""3"",""2"",""4"",""4"",""1"",""3"",""2"",""4"",""4"",""1"",""3""]","[1.485,2,2.471,2.801,3.028,3.367,3.579,4.007,4.279,4.508,4.81,5.053,5.502,5.744,5.94,6.324,6.542,6.832,7.042,7.26,7.559,7.805,8.088,8.295,8.492,8.987,9.255,9.562]",0,3,3,3,1,41324,,10,1,2020-10-06_09h11.09.807,Sequence Training,2020.1.3,Win32,60
"[""4"",""1"",""3"",""2"",""4"",""4"",""1"",""3"",""2"",""4"",""4"",""1"",""3"",""2"",""4"",""4"",""1"",""3"",""2"",""4"",""4"",""1"",""3"",""2"",""4"",""4"",""1"",""3"",""2"",""4"",""4"",""1"",""3"",""2"",""4""]","[0.761,1.127,1.459,1.793,1.994,2.4,2.634,2.899,3.162,3.382,3.629,3.862,4.132,4.329,4.551,4.785,5.007,5.313,5.531,5.752,6.011,6.215,6.571,6.865,7.085,7.397,7.686,8.002,8.258,8.504,8.817,9.066,9.327,9.556,9.798]",0,4,4,4,1,41324,,30,1,2020-10-06_09h11.09.807,Sequence Training,2020.1.3,Win32,60
"[""4"",""1"",""3"",""2"",""4"",""4"",""1"",""3"",""2"",""4"",""4"",""1"",""3"",""2"",""4"",""4"",""1"",""3"",""2"",""4"",""4"",""1"",""3"",""2"",""4"",""4"",""1"",""3"",""2"",""4"",""4"",""1""]","[0.917,1.268,1.736,2.151,2.406,2.733,3.03,3.409,3.658,3.883,4.164,4.391,4.737,4.97,5.186,5.473,5.723,6.024,6.242,6.485,6.818,7.051,7.321,7.572,7.787,8.086,8.352,8.612,8.808,9.039,9.539,9.79]",0,5,5,5,1,41324,,0,1,2020-10-06_09h11.09.807,Sequence Training,2020.1.3,Win32,60
"[""2"",""4"",""2"",""3"",""1"",""4"",""4"",""2"",""3"",""1"",""4"",""4"",""2"",""3"",""1"",""4"",""4"",""2""]","[0.229,1.805,2.521,2.982,3.392,3.803,4.607,5.163,5.439,6.085,6.406,7.086,7.657,7.903,8.394,8.716,9.473,9.87]",0,6,6,6,1,42314,,10,1,2020-10-06_09h11.09.807,Sequence Training,2020.1.3,Win32,60
"[""4"",""1"",""3"",""2"",""4"",""4"",""1"",""3"",""2"",""4"",""4"",""1"",""3"",""2"",""4"",""4"",""1"",""3"",""2"",""4"",""4"",""1"",""3"",""2"",""4"",""4"",""1"",""3"",""2"",""4""]","[0.79,1.277,1.671,2.021,2.239,2.588,2.856,3.205,3.488,3.705,3.989,4.272,4.755,5.321,5.489,5.851,6.115,6.552,6.894,7.107,7.416,7.665,7.973,8.307,8.507,8.792,9.075,9.393,9.646,9.907]",0,7,7,7,1,41324,,0,1,2020-10-06_09h11.09.807,Sequence Training,2020.1.3,Win32,60
"[""4"",""2"",""3"",""1"",""4"",""4"",""2"",""3"",""1"",""4"",""4"",""2"",""3"",""1"",""4""]","[2.289,2.729,2.976,3.395,3.642,4.271,5,5.189,5.523,5.81,6.506,7.003,7.156,7.471,8.156]",0,8,8,8,1,42314,,10,1,2020-10-06_09h11.09.807,Sequence Training,2020.1.3,Win32,60
"[""4"",""1"",""3"",""2"",""4"",""4"",""1"",""3"",""2"",""4"",""4"",""1"",""3"",""2"",""4"",""4"",""1"",""3"",""2"",""4"",""4"",""1"",""3"",""2"",""4""]","[0.779,1.681,1.926,2.298,2.547,2.854,3.449,3.698,3.982,4.209,4.505,5.022,5.233,5.528,5.735,6.087,6.571,6.85,7.102,7.336,7.801,8.349,8.951,9.235,9.5]",0,9,9,9,1,41324,,0,1,2020-10-06_09h11.09.807,Sequence Training,2020.1.3,Win32,60
"[""4"",""4"",""2"",""3"",""1"",""4"",""4"",""2"",""3"",""1"",""4"",""4"",""2"",""3"",""1"",""4"",""4"",""2"",""3"",""1"",""4"",""4""]","[0.136,1.235,1.937,2.203,2.587,2.838,3.209,3.658,3.854,4.345,4.562,5.075,5.825,6.029,6.288,6.571,7.2,7.847,8.068,8.34,8.586,9.608]",0,10,10,10,1,42314,,10,1,2020-10-06_09h11.09.807,Sequence Training,2020.1.3,Win32,60
"[""4"",""1"",""3"",""2"",""4"",""4"",""1"",""3"",""2"",""4"",""4"",""1"",""3"",""2"",""4"",""4"",""1"",""3"",""2"",""4"",""4"",""1"",""3"",""2"",""4"",""4""]","[2.195,2.994,3.16,3.477,3.661,3.965,4.533,4.729,4.956,5.166,5.463,6.114,6.312,6.529,6.745,7.033,7.511,7.701,7.939,8.165,8.478,8.913,9.13,9.331,9.553,9.9]",0,11,11,11,1,41324,,0,1,2020-10-06_09h11.09.807,Sequence Training,2020.1.3,Win32,60
"[""1"",""4"",""2"",""3"",""1"",""4"",""4"",""2"",""3"",""1"",""4"",""4"",""2"",""3"",""1"",""4"",""4"",""2"",""3"",""1"",""4"",""4"",""2"",""3"",""1"",""4"",""4"",""2"",""3""]","[0.221,1.287,1.672,1.842,2.087,2.316,2.629,3.096,3.241,3.527,3.755,4.163,4.588,4.732,4.977,5.173,5.547,6.006,6.145,6.364,6.56,7.008,7.605,7.789,8.022,8.272,9.489,9.823,9.956]",0,12,12,12,1,42314,,10,1,2020-10-06_09h11.09.807,Sequence Training,2020.1.3,Win32,60
"[""4"",""1"",""3"",""2"",""4"",""4"",""1"",""3"",""2"",""4"",""4"",""1"",""3"",""2"",""4"",""4"",""1"",""3"",""2"",""4"",""4""]","[1.151,2.457,2.709,3.092,3.385,3.726,4.418,4.608,4.868,5.078,5.414,6.206,6.452,6.756,6.987,7.587,8.385,8.569,8.868,9.092,9.605]",0,13,13,13,1,41324,,0,1,2020-10-06_09h11.09.807,Sequence Training,2020.1.3,Win32,60
"[""1"",""4"",""2"",""3"",""1"",""4"",""4"",""2"",""3"",""2"",""3"",""1"",""4"",""4"",""2"",""3"",""1"",""4"",""4"",""2"",""3"",""1"",""4""]","[0.152,1.205,1.619,1.803,2.045,2.331,2.58,2.99,3.121,4.339,4.487,4.721,4.96,5.371,5.746,5.944,6.112,6.324,7.436,7.927,8.125,8.322,8.65]",0,14,14,14,1,42314,,10,1,2020-10-06_09h11.09.807,Sequence Training,2020.1.3,Win32,60
"[""4"",""1"",""3"",""2"",""4"",""4"",""1"",""3"",""2"",""4"",""4"",""1"",""3"",""2"",""4"",""4"",""1"",""3"",""2"",""4"",""4"",""1"",""3"",""2"",""4"",""4"",""1"",""3"",""2"",""4""]","[1.463,2.179,2.405,2.737,3.044,3.304,3.571,3.737,3.993,4.171,4.437,4.738,4.971,5.197,5.372,5.663,5.911,6.172,6.379,6.615,6.913,7.261,7.501,7.758,7.985,8.332,8.666,8.879,9.113,9.323]",0,15,15,15,1,41324,,10,1,2020-10-06_09h11.09.807,Sequence Training,2020.1.3,Win32,60
"[""4"",""1"",""3"",""2"",""4"",""4"",""1"",""3"",""2"",""4"",""4"",""1"",""3"",""2"",""4"",""4"",""1"",""3"",""2"",""4"",""4"",""1"",""3"",""2"",""4"",""4"",""1"",""3"",""2"",""4"",""4"",""1"",""3"",""2"",""4""]","[1.106,1.43,1.628,1.933,2.107,2.356,2.623,2.774,3.057,3.223,3.506,3.824,4.024,4.257,4.453,4.757,5.032,5.246,5.476,5.676,5.996,6.261,6.491,6.713,6.946,7.32,7.643,7.837,8.094,8.337,8.692,9.021,9.247,9.492,9.709]",0,16,16,16,1,41324,,10,1,2020-10-06_09h11.09.807,Sequence Training,2020.1.3,Win32,60
"[""4"",""1"",""3"",""2"",""4"",""4"",""1"",""3"",""2"",""4"",""4"",""1"",""3"",""2"",""4"",""4"",""1"",""3"",""2"",""4"",""4"",""1"",""3"",""2"",""4"",""4"",""1"",""3"",""2"",""4"",""4"",""1""]","[0.967,1.269,1.436,1.734,1.923,2.181,2.726,3.029,3.268,3.545,3.786,4.179,4.404,4.63,4.87,5.179,5.48,5.702,5.93,6.192,6.447,6.73,7.139,7.482,7.797,8.064,8.332,8.631,8.87,9.164,9.498,9.831]",0,17,17,17,1,41324,,10,1,2020-10-06_09h11.09.807,Sequence Training,2020.1.3,Win32,60
"[""4"",""1"",""3"",""2"",""4"",""4"",""1"",""3"",""2"",""4"",""4"",""1"",""3"",""2"",""4"",""4"",""1"",""3"",""2"",""4"",""4"",""1"",""3"",""2"",""4"",""4"",""1"",""3"",""2"",""4""]","[0.709,1.072,1.602,1.914,2.44,2.773,3.175,3.457,3.707,3.941,4.237,4.586,4.841,5.075,5.341,5.64,5.959,6.198,6.446,6.696,7.057,7.442,7.676,7.926,8.16,8.496,8.894,9.161,9.398,9.652]",0,18,18,18,1,41324,,10,1,2020-10-06_09h11.09.807,Sequence Training,2020.1.3,Win32,60
"[""4"",""1"",""3"",""2"",""4"",""4"",""1"",""3"",""2"",""4"",""1"",""3"",""2"",""4"",""4"",""1"",""3"",""2"",""4"",""4"",""1"",""3"",""4"",""1"",""3"",""2"",""4""]","[0.894,1.205,1.427,1.711,1.927,2.208,2.577,2.76,3.169,3.513,3.835,4.069,4.304,4.546,4.848,5.165,5.428,5.647,5.918,6.224,6.577,7.035,7.661,7.994,8.224,9.184,9.398]",0,19,19,19,1,41324,,10,1,2020-10-06_09h11.09.807,Sequence Training,2020.1.3,Win32,60
"[""4"",""1"",""3"",""2"",""4"",""4"",""1"",""3"",""2"",""4"",""4"",""1"",""3"",""2"",""4"",""4"",""1"",""3"",""2"",""4"",""4"",""1"",""3"",""2"",""4"",""4"",""1"",""3"",""2"",""4""]","[2.02,2.233,2.411,2.655,2.864,3.115,3.391,3.583,3.849,4.039,4.332,4.668,4.899,5.166,5.383,5.718,6.022,6.333,6.568,6.791,7.131,7.383,7.934,8.23,8.502,8.806,9.134,9.369,9.635,9.842]",0,20,20,20,1,41324,,10,1,2020-10-06_09h11.09.807,Sequence Training,2020.1.3,Win32,60
"[""4"",""1"",""3"",""2"",""4"",""4"",""1"",""3"",""2"",""4"",""4"",""1"",""3"",""2"",""4"",""4"",""1"",""3"",""2"",""4"",""4"",""1"",""3"",""2"",""4"",""4"",""1"",""3"",""2"",""4"",""4""]","[0.708,1.046,1.309,1.578,1.811,2.138,2.454,2.663,2.959,3.206,3.488,3.79,3.998,4.261,4.505,4.773,5.055,5.295,5.572,5.823,6.105,6.425,6.756,7.064,7.34,8.207,8.591,8.891,9.192,9.441,9.925]",0,21,21,21,1,41324,,0,1,2020-10-06_09h11.09.807,Sequence Training,2020.1.3,Win32,60
